display,left_image,right_image,left_image_90,right_image_90,target_duration,target_duration_90,ANSWER,meta_left_number,meta_right_number,meta_ratio,meta_ratio_group,trials.thisRepN,trials.thisTrialN,trials.thisN,trials.thisIndex,trials_2.thisRepN,trials_2.thisTrialN,trials_2.thisN,trials_2.thisIndex,inst_text.started,inst_keyresp.started,text_2.started,inst_keyresp.keys,inst_keyresp.rt,blank_1000_text.started,etRecord.started,etRecord.stopped,blank_1000_text.stopped,fixation.started,roi_left.started,roi_right.started,roi_centre.started,roi_screen.started,roi_left_number.started,roi_right_number.started,target_left.started,target_right.started,target_left_90.started,target_left_90.stopped,target_right_90.started,target_right_90.stopped,trial_key_resp.started,fixation.stopped,trial_key_resp.keys,trial_key_resp.corr,trial_key_resp.rt,roi_left.numLooks,roi_left.timesOn,roi_left.timesOff,roi_right.numLooks,roi_right.timesOn,roi_right.timesOff,roi_centre.numLooks,roi_centre.timesOn,roi_centre.timesOff,roi_screen.numLooks,roi_screen.timesOn,roi_screen.timesOff,roi_left_number.numLooks,roi_left_number.timesOn,roi_left_number.timesOff,roi_right_number.numLooks,roi_right_number.timesOn,roi_right_number.timesOff,break_key_resp.keys,blank_500_text.started,blank_500_text.stopped,text_4.started,break_key_resp.started,break_key_resp.rt,inst_text_2.started,inst_keyresp_2.started,text_3.started,inst_keyresp_2.keys,inst_keyresp_2.rt,target_left.stopped,target_right.stopped,text.started,etRecord_end.started,etRecord_end.stopped,text.stopped,participant,session,date,expName,psychopyVersion,frameRate,
,,,,,,,,,,,,,,,,,,,,187.47481489996426,197.47578230011277,197.47578230011277,space,3.587074700044468,,,,,,,,,,,,,,,,,,,,,,,,,,,,,,,,,,,,,,,,,,,,,,,,,,,,,,,,,,0601,001,2023-02-06_16h57.47.462,mag_comparison_numeral,2022.2.5,60.00578454579195,
trial,009.png,008.png,009.png,008.png,3,0,left,9,8,0.8888888888888888,high,0,0,0,35,,,,,,,,,,202.4074637000449,1.3244811999611557,1.3244811999611557,203.4928061000537,203.4928061000537,203.4928061000537,203.4928061000537,203.4928061000537,203.4928061000537,203.4928061000537,203.4928061000537,204.42634380003437,204.42634380003437,204.42634380003437,204.42634380003437,204.42634380003437,204.42634380003437,204.42634380003437,204.50985120004043,left,1,0.6291956999339163,1,[1.2228161999955773],[1.6205466999672353],0,,,0,,,2,"[0.009462800109758973, 0.34620280005037785]","[0.09691690001636744, 1.1783133000135422]",1,[1.2258644001558423],[1.622860100120306],0,,,None,205.10953980009072,,,,,,,,,,,,,,,,0601,001,2023-02-06_16h57.47.462,mag_comparison_numeral,2022.2.5,60.00578454579195,
trial,001.png,009.png,001.png,009.png,3,0,right,1,9,0.1111111111111111,low,0,1,1,40,,,,,,,,,,,,,,205.6433920999989,205.6433920999989,205.6433920999989,205.6433920999989,205.6433920999989,205.6433920999989,205.6433920999989,206.59324509999715,206.59324509999715,206.59324509999715,206.59324509999715,206.59324509999715,206.59324509999715,206.59324509999715,206.65985990012996,right,1,0.5992181999608874,0,,,0,,,1,[1.265065599931404],[1.6033791999798268],1,[0.007398399990051985],[1.6042438999284059],0,,,1,[1.3030619998462498],[1.6057925999630243],None,207.25997050013393,,,,,,,,,,,,,,,,0601,001,2023-02-06_16h57.47.462,mag_comparison_numeral,2022.2.5,60.00578454579195,
trial,006.png,001.png,006.png,001.png,3,0,left,6,1,0.16666666666666666,low,0,2,2,19,,,,,,,,,,,,,,207.82658979995176,207.82658979995176,207.82658979995176,207.82658979995176,207.82658979995176,207.82658979995176,207.82658979995176,208.7598435000982,208.7598435000982,208.7598435000982,208.7598435000982,208.7598435000982,208.7598435000982,208.7598435000982,208.82644960004836,left,1,0.695611200062558,1,[1.2917035999707878],[1.6953837999608368],0,,,0,,,1,[0.6382846001069993],[1.2927116001956165],1,[1.3250094999093562],[1.697436299873516],0,,,None,209.5434465999715,,,,,,,,,,,,,,,,0601,001,2023-02-06_16h57.47.462,mag_comparison_numeral,2022.2.5,60.00578454579195,
trial,003.png,006.png,003.png,006.png,3,0,right,3,6,0.5,medium,0,3,3,43,,,,,,,,,,,,,,210.07704870007,210.07704870007,210.07704870007,210.07704870007,210.07704870007,210.07704870007,210.07704870007,211.04333080002107,211.04333080002107,211.04333080002107,211.04333080002107,211.04333080002107,211.04333080002107,211.04333080002107,211.11017540004104,right,1,0.68392249988392,0,,,3,"[1.410489299800247, 1.5062386998906732, 1.613926799967885]","[1.4418816999532282, 1.5503902998752892, 1.7178693998139352]",1,[1.3419704001862556],[1.7184559002052993],5,"[0.08387780003249645, 0.17959850002080202, 1.342269100015983, 1.442954400088638, 1.5510319001041353]","[0.14679899998009205, 1.310594700044021, 1.411581400083378, 1.5074006000068039, 1.6146524001378566]",0,,,1,[1.3823365001007915],[1.7202862000558525],None,211.81044100015424,,,,,,,,,,,,,,,,0601,001,2023-02-06_16h57.47.462,mag_comparison_numeral,2022.2.5,60.00578454579195,
trial,001.png,005.png,001.png,005.png,3,0,right,1,5,0.2,low,0,4,4,36,,,,,,,,,,,,,,212.3936692001298,212.3936692001298,212.3936692001298,212.3936692001298,212.3936692001298,212.3936692001298,212.3936692001298,213.3270364999771,213.3270364999771,213.3270364999771,213.3270364999771,213.3270364999771,213.3270364999771,213.3270364999771,213.42705960012972,right,1,0.8723458000458777,2,"[1.4118546000681818, 1.477697900030762]","[1.4627264998853207, 1.503420100081712]",0,,,1,[1.6315743001177907],[1.8486111001111567],3,"[0.032674199901521206, 1.0981330999638885, 1.6318540999200195]","[1.0725883999839425, 1.2956310000736266, 1.8491146999876946]",1,[1.3327697000931948],[1.6054695001803339],1,[1.6659743001218885],[1.8502114999573678],None,214.26059300010093,,,,,,,,,,,,,,,,0601,001,2023-02-06_16h57.47.462,mag_comparison_numeral,2022.2.5,60.00578454579195,
trial,006.png,007.png,006.png,007.png,3,0,right,6,7,0.8571428571428571,high,0,5,5,14,,,,,,,,,,,,,,214.82701150001958,214.82701150001958,214.82701150001958,214.82701150001958,214.82701150001958,214.82701150001958,214.82701150001958,215.76051940000616,215.76051940000616,215.76051940000616,215.76051940000616,215.76051940000616,215.76051940000616,215.76051940000616,215.86071950010955,right,1,1.095913999946788,1,[1.4758931000251323],[1.8118210001848638],1,[1.3479730000253767],[1.3796113000717014],2,"[1.2846492000389844, 1.8653329000808299]","[1.444891900056973, 2.084620099980384]",4,"[0.3100578000303358, 1.318376500159502, 1.380398100009188, 1.8131637000478804]","[1.2318256001453847, 1.348800600040704, 1.412575000198558, 2.0855647001881152]",1,[1.4776006999891251],[1.781712100142613],2,"[1.3192980999592692, 1.866526700090617]","[1.413355200085789, 2.0863805999979377]",None,216.9276400001254,,,,,,,,,,,,,,,,0601,001,2023-02-06_16h57.47.462,mag_comparison_numeral,2022.2.5,60.00578454579195,
trial,005.png,004.png,005.png,004.png,3,0,left,5,4,0.8,high,0,6,6,45,,,,,,,,,,,,,,217.46065589995123,217.46065589995123,217.46065589995123,217.46065589995123,217.46065589995123,217.46065589995123,217.46065589995123,218.41075070016086,218.41075070016086,218.41075070016086,218.41075070016086,218.41075070016086,218.41075070016086,218.41075070016086,218.4777347999625,left,1,1.3006718000397086,2,"[1.3094517001882195, 2.0135708001907915]","[1.7206782000139356, 2.288005900103599]",1,[1.8230777001008391],[1.9823759000282735],1,[1.7580919999163598],[1.982805100036785],3,"[0.008132999995723367, 0.2380886001046747, 1.7583286000881344]","[0.14148869994096458, 1.277383399894461, 1.8237513001076877]",2,"[1.3110026000067592, 2.046151400078088]","[1.7224990001413971, 2.2893882000353187]",1,[1.7908514000009745],[1.98383569996804],None,219.77743110014126,,,,,,,,,,,,,,,,0601,001,2023-02-06_16h57.47.462,mag_comparison_numeral,2022.2.5,60.00578454579195,
trial,009.png,002.png,009.png,002.png,3,0,left,9,2,0.2222222222222222,low,0,7,7,6,,,,,,,,,,,,,,220.29435700015165,220.29435700015165,220.29435700015165,220.29435700015165,220.29435700015165,220.29435700015165,220.29435700015165,221.2442046001088,221.2442046001088,221.2442046001088,221.2442046001088,221.2442046001088,221.2442046001088,221.2442046001088,221.32776909996755,left,1,0.995530900079757,2,"[1.24334830022417, 1.9100858001038432]","[1.5768878001254052, 1.9768988001160324]",1,[1.6444613998755813],[1.8422280999366194],1,[1.578660200117156],[1.8776913001202047],6,"[0.32301619998179376, 0.43677560007199645, 0.6276517000515014, 0.7271084000822157, 0.8268267000094056, 1.6123299999162555]","[0.4028207000810653, 0.5007458000909537, 0.6933218000922352, 0.8050134999211878, 0.8610712999943644, 1.6456808999646455]",2,"[1.3005089999642223, 1.913858300074935]","[1.5458545999135822, 1.980189000023529]",1,[1.6135281000752002],[1.8449248999822885],None,222.2945320000872,,,,,,,,,,,,,,,,0601,001,2023-02-06_16h57.47.462,mag_comparison_numeral,2022.2.5,60.00578454579195,
trial,009.png,007.png,009.png,007.png,3,0,left,9,7,0.7777777777777778,high,0,8,8,52,,,,,,,,,,,,,,222.81169719994068,222.81169719994068,222.81169719994068,222.81169719994068,222.81169719994068,222.81169719994068,222.81169719994068,223.81138900015503,223.81138900015503,223.81138900015503,223.81138900015503,223.81138900015503,223.81138900015503,223.81138900015503,223.84496170002967,left,1,0.8277704000938684,1,[1.3268999999854714],[1.869157100096345],0,,,0,,,4,"[0.14337860001251101, 0.21161380014382303, 0.5539281000383198, 0.6222336001228541]","[0.1763671999797225, 0.48914550011977553, 0.5890115001238883, 1.2944579001050442]",1,[1.3315850000362843],[1.871866000117734],0,,,None,224.7114512999542,,,,,,,,,,,,,,,,0601,001,2023-02-06_16h57.47.462,mag_comparison_numeral,2022.2.5,60.00578454579195,
trial,008.png,001.png,008.png,001.png,3,0,left,8,1,0.125,low,0,9,9,39,,,,,,,,,,,,,,225.22830360010266,225.22830360010266,225.22830360010266,225.22830360010266,225.22830360010266,225.22830360010266,225.22830360010266,226.1950308000669,226.1950308000669,226.1950308000669,226.1950308000669,226.1950308000669,226.1950308000669,226.1950308000669,226.26171270012856,left,1,1.1569892999250442,1,[1.7503973001148552],[2.1845911000855267],0,,,1,[1.447141099954024],[1.7201556998770684],2,"[0.007152599981054664, 1.4475847000721842]","[1.2886983000207692, 1.7206234999466687]",1,[1.7842230000533164],[2.186735099880025],1,[1.4801475000567734],[1.6892117999959737],None,227.44511219998822,,,,,,,,,,,,,,,,0601,001,2023-02-06_16h57.47.462,mag_comparison_numeral,2022.2.5,60.00578454579195,
trial,009.png,005.png,009.png,005.png,3,0,left,9,5,0.5555555555555556,medium,0,10,10,31,,,,,,,,,,,,,,227.96194049995393,227.96194049995393,227.96194049995393,227.96194049995393,227.96194049995393,227.96194049995393,227.96194049995393,228.94529810012318,228.94529810012318,228.94529810012318,228.94529810012318,228.94529810012318,228.94529810012318,228.94529810012318,228.97843010001816,left,1,0.8776265999767929,1,[1.293618799885735],[1.4329572999849916],1,[1.72255830001086],[1.7557004000991583],1,[1.4718054998666048],[1.756639099912718],4,"[0.5943185000214726, 0.859039600007236, 0.9219704000279307, 1.4724917002022266]","[0.7739144000224769, 0.8899795000907034, 1.2637503000441939, 1.723491400014609]",2,"[1.328736700117588, 1.8157336001750082]","[1.4355041000526398, 1.905649600084871]",1,[1.4981386000290513],[1.7243286999873817],None,229.89527610014193,,,,,,,,,,,,,,,,0601,001,2023-02-06_16h57.47.462,mag_comparison_numeral,2022.2.5,60.00578454579195,
trial,006.png,007.png,006.png,007.png,3,0,right,6,7,0.8571428571428571,high,0,11,11,50,,,,,,,,,,,,,,230.46202159998938,230.46202159998938,230.46202159998938,230.46202159998938,230.46202159998938,230.46202159998938,230.46202159998938,231.36181359994225,231.36181359994225,231.36181359994225,231.36181359994225,231.36181359994225,231.36181359994225,231.36181359994225,231.49522010004148,right,1,1.517372300149873,1,[1.7144454999361187],[2.120767500018701],1,[1.4436474000103772],[1.651542899897322],2,"[1.3850938000250608, 2.157206099946052]","[1.6832685999106616, 2.484333199914545]",2,"[0.6758152998518199, 2.1577692998107523]","[1.444323199801147, 2.4846449999604374]",1,[1.7156758999917656],[2.12370099988766],2,"[1.4175378999207169, 2.193382400088012]","[1.652906100032851, 2.485666000051424]",None,232.96241040015593,,,,,,,,,,,,,,,,0601,001,2023-02-06_16h57.47.462,mag_comparison_numeral,2022.2.5,60.00578454579195,
trial,007.png,008.png,007.png,008.png,3,0,right,7,8,0.875,high,0,12,12,69,,,,,,,,,,,,,,233.49556010006927,233.49556010006927,233.49556010006927,233.49556010006927,233.49556010006927,233.49556010006927,233.49556010006927,234.47886790009215,234.47886790009215,234.47886790009215,234.47886790009215,234.47886790009215,234.47886790009215,234.47886790009215,234.51217840006575,right,1,1.1846274000126868,1,[1.365698000183329],[1.7338184001855552],3,"[1.7970922000240535, 1.8624166001100093, 1.9567683001514524]","[1.8292640999425203, 1.9258566000498831, 2.158799200085923]",1,[1.7343878999818116],[2.2158567998558283],13,"[0.007123200222849846, 0.26416550017893314, 0.42307010013610125, 0.5507068000733852, 0.6617444001603872, 0.8544515001121908, 0.9183071001898497, 1.1265968000516295, 1.734635700006038, 1.8301344001665711, 1.9266438002232462, 1.9908241000957787, 2.1610658999998122]","[0.0547021001111716, 0.38996040006168187, 0.5187217001803219, 0.5825682000722736, 0.8221206001471728, 0.8858309001661837, 0.9986716001294553, 1.3179869002196938, 1.7977407001890242, 1.8631163001991808, 1.9574896001722664, 2.0225674000103027, 2.2161501001100987]",1,[1.3670410001650453],[1.7349171000532806],1,[1.7668479001149535],[2.189085700083524],None,235.71243389998563,,,,,,,,,,,,,,,,0601,001,2023-02-06_16h57.47.462,mag_comparison_numeral,2022.2.5,60.00578454579195,
trial,009.png,008.png,009.png,008.png,3,0,left,9,8,0.8888888888888888,high,0,13,13,71,,,,,,,,,,,,,,236.2623110001441,236.2623110001441,236.2623110001441,236.2623110001441,236.2623110001441,236.2623110001441,236.2623110001441,237.21243950002827,237.21243950002827,237.21243950002827,237.21243950002827,237.21243950002827,237.21243950002827,237.21243950002827,237.27915129996836,left,1,0.883750099921599,1,[1.3406010000035167],[1.9164104999508709],0,,,0,,,5,"[0.007341699907556176, 0.7304710999596864, 1.0355791999027133, 1.1808930998668075, 1.2434503000695258]","[0.20254789991304278, 0.7782353998627514, 1.069546999875456, 1.200656200060621, 1.273886099923402]",1,[1.5175977000035346],[1.9182899000588804],0,,,None,238.17936810012907,,,,,,,,,,,,,,,,0601,001,2023-02-06_16h57.47.462,mag_comparison_numeral,2022.2.5,60.00578454579195,
trial,003.png,006.png,003.png,006.png,3,0,right,3,6,0.5,medium,0,14,14,7,,,,,,,,,,,,,,238.71276900009252,238.71276900009252,238.71276900009252,238.71276900009252,238.71276900009252,238.71276900009252,238.71276900009252,239.67957279994152,239.67957279994152,239.67957279994152,239.67957279994152,239.67957279994152,239.67957279994152,239.67957279994152,239.74642480001785,right,1,0.8956728000193834,0,,,1,[1.3887911001220345],[1.8983613001182675],1,[1.3575292001478374],[1.899039100157097],2,"[0.2538113999180496, 1.3578605998773128]","[1.3243199000135064, 1.3894791998900473]",0,,,1,[1.3901511000003666],[1.9009836001787335],None,240.62976650008932,,,,,,,,,,,,,,,,0601,001,2023-02-06_16h57.47.462,mag_comparison_numeral,2022.2.5,60.00578454579195,
trial,009.png,001.png,009.png,001.png,3,0,left,9,1,0.1111111111111111,low,0,15,15,22,,,,,,,,,,,,,,241.21294350014068,241.21294350014068,241.21294350014068,241.21294350014068,241.21294350014068,241.21294350014068,241.21294350014068,242.14635020005517,242.14635020005517,242.14635020005517,242.14635020005517,242.14635020005517,242.14635020005517,242.14635020005517,242.2463583999779,left,1,0.9975997998844832,1,[1.5444734001066536],[1.9893080000765622],0,,,0,,,5,"[0.18823929992504418, 0.342535600066185, 0.5525342999026179, 1.2902345000766218, 1.384876900119707]","[0.3112413000781089, 0.471226500114426, 0.5836283001117408, 1.353187199914828, 1.5142129000741988]",1,[1.577405899995938],[1.9908606000244617],0,,,None,243.2134056999348,,,,,,,,,,,,,,,,0601,001,2023-02-06_16h57.47.462,mag_comparison_numeral,2022.2.5,60.00578454579195,
trial,005.png,009.png,005.png,009.png,3,0,right,5,9,0.5555555555555556,medium,0,16,16,13,,,,,,,,,,,,,,243.73010689998046,243.73010689998046,243.73010689998046,243.73010689998046,243.73010689998046,243.73010689998046,243.73010689998046,244.69664770015515,244.69664770015515,244.69664770015515,244.69664770015515,244.69664770015515,244.69664770015515,244.69664770015515,244.72995920013636,right,1,0.9909605998545885,1,[1.326464100042358],[1.518829100066796],1,[1.5829333998262882],[2.0346674998290837],1,[1.5510281000752002],[2.0352752001490444],6,"[0.32299120002426207, 0.481285999994725, 0.9333768000360578, 1.0592259000986814, 1.2472773999907076, 1.519649500027299]","[0.41742920014075935, 0.8839084999635816, 0.9659480999689549, 1.1840278999879956, 1.295882800128311, 1.5513685999903828]",1,[1.3276730000507087],[1.496847900096327],1,[1.5841505001299083],[2.0368127000983804],None,245.78004939993843,,,,,,,,,,,,,,,,0601,001,2023-02-06_16h57.47.462,mag_comparison_numeral,2022.2.5,60.00578454579195,
trial,007.png,003.png,007.png,003.png,3,0,left,7,3,0.42857142857142855,medium,0,17,17,8,,,,,,,,,,,,,,246.3303388999775,246.3303388999775,246.3303388999775,246.3303388999775,246.3303388999775,246.3303388999775,246.3303388999775,247.28020839998499,247.28020839998499,247.28020839998499,247.28020839998499,247.28020839998499,247.28020839998499,247.28020839998499,247.34708230011165,left,1,1.4068030999042094,4,"[1.5475988001562655, 1.7515097002033144, 2.0898838001303375, 2.281900400063023]","[1.579120600130409, 1.787346800090745, 2.122513300040737, 2.426826700102538]",0,,,1,[1.788403799990192],[2.059766300022602],7,"[0.011797500075772405, 0.22396200010553002, 0.31801820010878146, 0.4151103999465704, 0.5592223000712693, 0.6475140999536961, 1.7904793000780046]","[0.07826390000991523, 0.2845819001086056, 0.3507252000272274, 0.4771473000291735, 0.6182920001447201, 1.5166927999816835, 2.0915049000177532]",2,"[1.5812979999464005, 2.124504700070247]","[1.7529909000732005, 2.428942000027746]",1,[1.8227154999040067],[2.061300199944526],None,248.8137779000681,249.38054280006327,,,,,,,,,,,,,,,0601,001,2023-02-06_16h57.47.462,mag_comparison_numeral,2022.2.5,60.00578454579195,
trial,004.png,007.png,004.png,007.png,3,0,right,4,7,0.5714285714285714,medium,0,18,18,10,,,,,,,,,,,,,,249.38054280006327,249.38054280006327,249.38054280006327,249.38054280006327,249.38054280006327,249.38054280006327,249.38054280006327,250.34706840012223,250.34706840012223,250.34706840012223,250.34706840012223,250.34706840012223,250.34706840012223,250.34706840012223,250.41394540015608,right,1,1.1245498999487609,1,[1.402425000211224],[1.740957000060007],1,[1.7717714000027627],[2.1396568999625742],1,[1.7723169999662787],[2.140186900040135],1,[0.010257699992507696],[0.4452925999648869],1,[1.4495538000483066],[1.7436397999990731],1,[1.822977599920705],[2.141766400076449],None,251.5475397000555,,,,,,,,,,,,,,,,0601,001,2023-02-06_16h57.47.462,mag_comparison_numeral,2022.2.5,60.00578454579195,
trial,005.png,002.png,005.png,002.png,3,0,left,5,2,0.4,medium,0,19,19,5,,,,,,,,,,,,,,252.08083660015836,252.08083660015836,252.08083660015836,252.08083660015836,252.08083660015836,252.08083660015836,252.08083660015836,253.03108819993213,253.03108819993213,253.03108819993213,253.03108819993213,253.03108819993213,253.03108819993213,253.03108819993213,253.08095640013926,left,1,1.455864300020039,2,"[1.29686290002428, 1.9837470001075417]","[1.5207237999420613, 2.473198299994692]",1,[1.5527875002007931],[1.9206648000981659],1,[1.5213711000978947],[1.9524809999857098],4,"[0.4209104999899864, 0.9287765000481158, 0.9912123999092728, 1.5216667000204325]","[0.881521699950099, 0.965556199895218, 1.1589315999299288, 1.5533576000016183]",1,[1.9848406999371946],[2.475740500027314],1,[1.553970400011167],[1.9219641000963748],None,254.56430139997974,,,,,,,,,,,,,,,,0601,001,2023-02-06_16h57.47.462,mag_comparison_numeral,2022.2.5,60.00578454579195,
trial,006.png,003.png,006.png,003.png,3,0,left,6,3,0.5,medium,0,20,20,25,,,,,,,,,,,,,,255.11414030008018,255.11414030008018,255.11414030008018,255.11414030008018,255.11414030008018,255.11414030008018,255.11414030008018,256.0647090000566,256.0647090000566,256.0647090000566,256.0647090000566,256.0647090000566,256.0647090000566,256.0647090000566,256.13106049993075,left,1,1.2141352999024093,1,[1.7521478000562638],[2.2179530998691916],1,[1.360556400148198],[1.6883352999575436],1,[1.2929865999612957],[1.722705899970606],5,"[0.007399699883535504, 0.9538461999036372, 1.1186291000340134, 1.2935343999415636, 1.6891336000990123]","[0.9220831000711769, 0.9861111999489367, 1.1614798998925835, 1.3616593000479043, 1.723079500021413]",1,[1.7539611998945475],[2.2197294998914003],1,[1.3280818001367152],[1.6896808000747114],None,257.3814912000671,,,,,,,,,,,,,,,,0601,001,2023-02-06_16h57.47.462,mag_comparison_numeral,2022.2.5,60.00578454579195,
trial,004.png,007.png,004.png,007.png,3,0,right,4,7,0.5714285714285714,medium,0,21,21,46,,,,,,,,,,,,,,257.91460240003653,257.91460240003653,257.91460240003653,257.91460240003653,257.91460240003653,257.91460240003653,257.91460240003653,258.8477598000318,258.8477598000318,258.8477598000318,258.8477598000318,258.8477598000318,258.8477598000318,258.8477598000318,258.9481117001269,right,1,1.423297300003469,2,"[0.009318600175902247, 1.600394100183621]","[0.3799217001069337, 1.969548000022769]",0,,,2,"[1.3839809000492096, 2.0182680999860168]","[1.5668226000852883, 2.414342900039628]",5,"[0.41542570013552904, 0.6761038999538869, 0.8687821000348777, 1.047101200092584, 2.0188138999510556]","[0.5445636999793351, 0.7081266001332551, 0.974526199977845, 1.5673251000698656, 2.414916400099173]",2,"[0.012113099917769432, 1.603571099927649]","[0.38342970004305243, 1.9730424000881612]",2,"[1.4120777999050915, 2.020374499959871]","[1.534995999885723, 2.415983499959111]",None,260.3316726000048,,,,,,,,,,,,,,,,0601,001,2023-02-06_16h57.47.462,mag_comparison_numeral,2022.2.5,60.00578454579195,
trial,002.png,009.png,002.png,009.png,3,0,right,2,9,0.2222222222222222,low,0,22,22,60,,,,,,,,,,,,,,260.8982518000994,260.8982518000994,260.8982518000994,260.8982518000994,260.8982518000994,260.8982518000994,260.8982518000994,261.8314294000156,261.8314294000156,261.8314294000156,261.8314294000156,261.8314294000156,261.8314294000156,261.8314294000156,261.9316742999945,right,1,2.0553501998074353,5,"[1.7803641001228243, 2.0901029999367893, 2.2219688000623137, 2.3256836000364274, 2.4870589000638574]","[1.9559202999807894, 2.1614224000368267, 2.254713200032711, 2.456426399992779, 2.511794399935752]",3,"[1.3771893999073654, 1.5051063001155853, 2.6092413999140263]","[1.4407824000809342, 1.7490574000403285, 3.0592074000742286]",3,"[0.00719510018825531, 1.3138338001444936, 2.5778413000516593]","[0.23953750007785857, 1.7499012001790106, 3.0597829001490027]",5,"[0.007625299971550703, 0.4800958998966962, 0.7088673999533057, 1.441681999946013, 1.7505609998479486]","[0.30785929993726313, 0.644647799897939, 1.37807899992913, 1.5066017999779433, 1.7823289998341352]",1,[1.8145777999889106],[2.5470553000923246],3,"[0.008520799921825528, 1.3464848001021892, 2.6110811000689864]","[0.19186259992420673, 1.751921399962157, 3.061509200138971]",None,263.96511330013163,,,,,,,,,,,,,,,,0601,001,2023-02-06_16h57.47.462,mag_comparison_numeral,2022.2.5,60.00578454579195,
trial,007.png,006.png,007.png,006.png,3,0,left,7,6,0.8571428571428571,high,0,23,23,32,,,,,,,,,,,,,,264.5152406000998,264.5152406000998,264.5152406000998,264.5152406000998,264.5152406000998,264.5152406000998,264.5152406000998,265.4821377999615,265.4821377999615,265.4821377999615,265.4821377999615,265.4821377999615,265.4821377999615,265.4821377999615,265.5319437000435,left,1,1.9567793000023812,2,"[1.4896577999461442, 2.5012906999327242]","[1.9429148000199348, 2.9630231000483036]",2,"[0.0069796000607311726, 1.9776855001691729]","[0.16738410014659166, 2.4700373001396656]",3,"[0.007415900006890297, 1.3302047001197934, 1.9783518000040203]","[0.19894040003418922, 1.4592720000073314, 2.472532100044191]",5,"[0.26219509984366596, 0.5352562998887151, 0.7916639999020845, 0.8985074998345226, 1.9447024997789413]","[0.295230699935928, 0.5682172998785973, 0.8675947999581695, 0.9309195999521762, 1.9790462998207659]",2,"[1.5229652000125498, 2.53126380010508]","[1.9453420001082122, 2.964143100194633]",2,"[0.00911810016259551, 1.9802423000801355]","[0.16973700001835823, 2.4414544000755996]",space,270.065633200109,,267.51521460013464,267.51521460013464,2.44436309998855,,,,,,,,,,,,0601,001,2023-02-06_16h57.47.462,mag_comparison_numeral,2022.2.5,60.00578454579195,
trial,001.png,007.png,001.png,007.png,3,0,right,1,7,0.14285714285714285,low,0,24,24,2,,,,,,,,,,,,,,270.59935860009864,270.59935860009864,270.59935860009864,270.59935860009864,270.59935860009864,270.59935860009864,270.59935860009864,271.5494381999597,271.5494381999597,271.5494381999597,271.5494381999597,271.5494381999597,271.5494381999597,271.5494381999597,271.6157523000147,right,1,1.1304232999682426,1,[1.3543448999989778],[1.5105069999117404],0,,,1,[1.7868611998856068],[2.123551500029862],7,"[0.07178850006312132, 0.2563080000691116, 0.3779625000897795, 0.44164670002646744, 0.6557161000091583, 1.1239152001217008, 1.7876287000253797]","[0.22162399999797344, 0.3463161999825388, 0.41018770006485283, 0.5381801000330597, 0.6890640000347048, 1.1571476000826806, 2.124100800137967]",1,[1.4810808999463916],[1.7556745999027044],1,[1.8220524999778718],[2.125964399892837],None,272.73236480006017,,,,,,,,,,,,,,,,0601,001,2023-02-06_16h57.47.462,mag_comparison_numeral,2022.2.5,60.00578454579195,
trial,008.png,009.png,008.png,009.png,3,0,right,8,9,0.8888888888888888,high,0,25,25,53,,,,,,,,,,,,,,273.28268530010246,273.28268530010246,273.28268530010246,273.28268530010246,273.28268530010246,273.28268530010246,273.28268530010246,274.24925890006125,274.24925890006125,274.24925890006125,274.24925890006125,274.24925890006125,274.24925890006125,274.24925890006125,274.2992088000756,right,1,1.4058546000160277,1,[1.3274646999780089],[1.7323370000813156],1,[2.4331880998797715],[2.433192600030452],1,[1.7652821000665426],[2.4335090999957174],4,"[0.0071124001406133175, 0.6294327001087368, 0.725689500104636, 1.7658737001474947]","[0.32552800001576543, 0.6620114999823272, 1.2976220999844372, 2.4337937000673264]",1,[1.4284263998270035],[1.7346284999512136],1,[1.7989129000343382],[2.434327300172299],None,275.7493795999326,,,,,,,,,,,,,,,,0601,001,2023-02-06_16h57.47.462,mag_comparison_numeral,2022.2.5,60.00578454579195,
trial,001.png,005.png,001.png,005.png,3,0,right,1,5,0.2,low,0,26,26,0,,,,,,,,,,,,,,276.2998983999714,276.2998983999714,276.2998983999714,276.2998983999714,276.2998983999714,276.2998983999714,276.2998983999714,277.21646529994905,277.21646529994905,277.21646529994905,277.21646529994905,277.21646529994905,277.21646529994905,277.21646529994905,277.33318349998444,right,1,1.0405425999779254,2,"[1.2859338000416756, 1.59005880006589]","[1.3175157001242042, 1.6942364000715315]",1,[1.6953476001508534],[1.9895926001481712],1,[1.6980047000106424],[1.9899885999038815],3,"[0.00705250003375113, 0.4927312000654638, 0.9192240000702441]","[0.4243008999619633, 0.8907751999795437, 1.226657300023362]",1,[1.2878068001009524],[1.6237135999836028],1,[1.7006168998777866],[1.9911819999106228],None,278.3164441001136,,,,,,,,,,,,,,,,0601,001,2023-02-06_16h57.47.462,mag_comparison_numeral,2022.2.5,60.00578454579195,
trial,003.png,007.png,003.png,007.png,3,0,right,3,7,0.42857142857142855,medium,0,27,27,62,,,,,,,,,,,,,,278.8663218000438,278.8663218000438,278.8663218000438,278.8663218000438,278.8663218000438,278.8663218000438,278.8663218000438,279.79981580004096,279.79981580004096,279.79981580004096,279.79981580004096,279.79981580004096,279.79981580004096,279.79981580004096,279.9001569999382,right,1,1.3916297000832856,1,[1.572888100054115],[1.9387680001091212],2,"[2.0346065999474376, 2.1467633000575006]","[2.1120635999832302, 2.273867999901995]",1,[1.9399574000854045],[2.3747019001748413],11,"[0.15945010003633797, 0.22845389996655285, 0.3730893998872489, 0.6281895998399705, 0.8683137998450547, 0.932849399978295, 1.103968699928373, 1.2050469999667257, 1.9405079998541623, 2.1128576998598874, 2.245366199873388]","[0.19781499984674156, 0.3560947999358177, 0.5952131999656558, 0.8366155000403523, 0.900057699996978, 1.070993599947542, 1.1736098998226225, 1.2644595999736339, 2.0358370000030845, 2.147863999940455, 2.3753129998221993]",1,[1.3807280999608338],[1.909599700011313],1,[1.9735440001823008],[2.376640200149268],None,281.26675350009464,,,,,,,,,,,,,,,,0601,001,2023-02-06_16h57.47.462,mag_comparison_numeral,2022.2.5,60.00578454579195,
trial,004.png,005.png,004.png,005.png,3,0,right,4,5,0.8,high,0,28,28,63,,,,,,,,,,,,,,281.80016690003686,281.80016690003686,281.80016690003686,281.80016690003686,281.80016690003686,281.80016690003686,281.80016690003686,282.78341050003655,282.78341050003655,282.78341050003655,282.78341050003655,282.78341050003655,282.78341050003655,282.78341050003655,282.8169203000143,right,1,1.2393300000112504,1,[1.3558471000287682],[1.8852222000714391],1,[1.9186482999939471],[2.2857383999507874],1,[1.919165400089696],[2.286296600010246],4,"[0.28934659995138645, 1.0540777000132948, 1.1827497999183834, 1.24540779995732]","[1.0215674000792205, 1.118116700090468, 1.2120211001019925, 1.3101111000869423]",1,[1.485600700136274],[1.8551654000766575],1,[1.9217302999459207],[2.2887421001214534],None,284.11697760014795,,,,,,,,,,,,,,,,0601,001,2023-02-06_16h57.47.462,mag_comparison_numeral,2022.2.5,60.00578454579195,
trial,006.png,001.png,006.png,001.png,3,0,left,6,1,0.16666666666666666,low,0,29,29,55,,,,,,,,,,,,,,284.6335344000254,284.6335344000254,284.6335344000254,284.6335344000254,284.6335344000254,284.6335344000254,284.6335344000254,285.61691550002433,285.61691550002433,285.61691550002433,285.61691550002433,285.61691550002433,285.61691550002433,285.61691550002433,285.650239800103,left,1,1.1666399000678211,2,"[1.3832820998504758, 1.9914197998587042]","[1.5589812998659909, 2.186548799974844]",0,,,1,[1.5908129999879748],[1.9594187000766397],2,"[0.00828820001333952, 1.5601733999792486]","[0.1557495000306517, 1.9597916000057012]",2,"[1.431930199963972, 1.993355100043118]","[1.5274549000896513, 2.187871100148186]",1,[1.6240724998060614],[1.9273531998042017],None,286.8336513999384,,,,,,,,,,,,,,,,0601,001,2023-02-06_16h57.47.462,mag_comparison_numeral,2022.2.5,60.00578454579195,
trial,002.png,005.png,002.png,005.png,3,0,right,2,5,0.4,medium,0,30,30,23,,,,,,,,,,,,,,287.3837401000783,287.3837401000783,287.3837401000783,287.3837401000783,287.3837401000783,287.3837401000783,287.3837401000783,288.33382180007175,288.33382180007175,288.33382180007175,288.33382180007175,288.33382180007175,288.33382180007175,288.33382180007175,288.4005797000136,right,1,1.8177114999853075,4,"[1.2699476999696344, 1.5268953000195324, 1.6063799001276493, 1.6699934999924153]","[1.4943946001585573, 1.5581817000638694, 1.6381250000558794, 1.8617471000179648]",2,"[1.9434198001399636, 2.1348956001456827]","[2.1022874999325722, 2.8410700999666005]",1,[1.8950044000521302],[2.8414718001149595],2,"[0.5048204001504928, 1.8630808000452816]","[1.2402219001669437, 1.944058099994436]",1,[1.3038128998596221],[1.8305027999449521],1,[1.9445327001158148],[2.842256500152871],None,290.23399450001307,,,,,,,,,,,,,,,,0601,001,2023-02-06_16h57.47.462,mag_comparison_numeral,2022.2.5,60.00578454579195,
trial,005.png,006.png,005.png,006.png,3,0,right,5,6,0.8333333333333334,high,0,31,31,66,,,,,,,,,,,,,,290.78409770014696,290.78409770014696,290.78409770014696,290.78409770014696,290.78409770014696,290.78409770014696,290.78409770014696,291.75102550000884,291.75102550000884,291.75102550000884,291.75102550000884,291.75102550000884,291.75102550000884,291.75102550000884,291.8176172999665,right,1,2.008111999835819,2,"[1.3144082999788225, 1.8687079998198897]","[1.4618877000175416, 2.354848299873993]",6,"[1.462515400024131, 2.4822664000093937, 2.6365547000896186, 2.8191156999673694, 2.8827935000881553, 3.0034540998749435]","[1.826454099966213, 2.515217100037262, 2.658813700079918, 2.8503042000811547, 2.9869238000828773, 3.0273581999354064]",2,"[1.4631250000093132, 2.4189316001720726]","[1.8578540000598878, 3.027675700141117]",7,"[0.019488299963995814, 2.4192417999729514, 2.5157566000707448, 2.6593055000994354, 2.851027100114152, 2.9875191000755876, 3.0279551001731306]","[1.283672200050205, 2.4827674000989646, 2.637327400036156, 2.819680399959907, 2.883596300147474, 3.004168099956587, 3.0279592000879347]",2,"[1.3155803000554442, 1.8913362000603229]","[1.4112901000771672, 2.3559992001391947]",2,"[1.6196510000154376, 2.4198881001211703]","[1.8276567999273539, 3.0285040999297053]",None,293.81769719999284,,,,,,,,,,,,,,,,0601,001,2023-02-06_16h57.47.462,mag_comparison_numeral,2022.2.5,60.00578454579195,
trial,009.png,002.png,009.png,002.png,3,0,left,9,2,0.2222222222222222,low,0,32,32,42,,,,,,,,,,,,,,294.4011948001571,294.4011948001571,294.4011948001571,294.4011948001571,294.4011948001571,294.4011948001571,294.4011948001571,295.3014295999892,295.3014295999892,295.3014295999892,295.3014295999892,295.3014295999892,295.3014295999892,295.3014295999892,295.41792410006747,left,1,1.5855284000281245,1,[1.8885168000124395],[2.592860799981281],1,[1.473075999878347],[1.8093576999381185],1,[1.4403538999613374],[1.8422362999990582],5,"[0.052606199868023396, 0.6426295998971909, 1.1532956000883132, 1.4406427000649273, 1.8098579000215977]","[0.2101668999530375, 1.1055924999527633, 1.185802899999544, 1.4737801000010222, 1.8425555999856442]",1,[1.8897188999690115],[2.5942225998733193],1,[1.4744718000292778],[1.810566599946469],None,296.96791859995574,,,,,,,,,,,,,,,,0601,001,2023-02-06_16h57.47.462,mag_comparison_numeral,2022.2.5,60.00578454579195,
trial,008.png,001.png,008.png,001.png,3,0,left,8,1,0.125,low,0,33,33,3,,,,,,,,,,,,,,297.50141329993494,297.50141329993494,297.50141329993494,297.50141329993494,297.50141329993494,297.50141329993494,297.50141329993494,298.484828799963,298.484828799963,298.484828799963,298.484828799963,298.484828799963,298.484828799963,298.484828799963,298.51816480001435,left,1,1.3067310999613255,3,"[0.005351499887183309, 1.3169760999735445, 1.9117602999322116]","[0.1806882000528276, 1.4794469999615103, 2.3558187999296933]",1,[1.755548199871555],[1.783708699978888],1,[1.5127731000538915],[1.8807298000901937],3,"[0.3411250999197364, 1.4813974001444876, 1.817864099983126]","[1.2855871999636292, 1.756713300012052, 1.9127523999195546]",3,"[0.006509799975901842, 1.3221676000393927, 1.9407429001294076]","[0.13336979993619025, 1.4519130000844598, 2.3569235999602824]",1,[1.5480363999959081],[1.846206600079313],None,299.8849136000499,,,,,,,,,,,,,,,,0601,001,2023-02-06_16h57.47.462,mag_comparison_numeral,2022.2.5,60.00578454579195,
trial,009.png,005.png,009.png,005.png,3,0,left,9,5,0.5555555555555556,medium,0,34,34,67,,,,,,,,,,,,,,300.43495070002973,300.43495070002973,300.43495070002973,300.43495070002973,300.43495070002973,300.43495070002973,300.43495070002973,301.3517025001347,301.3517025001347,301.3517025001347,301.3517025001347,301.3517025001347,301.3517025001347,301.3517025001347,301.4517125999555,left,1,1.51222679996863,3,"[0.005943899974226952, 1.9775740001350641, 2.047473100014031]","[0.12184910010546446, 2.0307537000626326, 2.474493900081143]",2,"[1.4675024999305606, 1.6421760998200625]","[1.6093784000258893, 1.9779424997977912]",1,[1.2981483999174088],[1.9782149998936802],3,"[0.7953178999014199, 0.9071615999564528, 0.9491282000672072]","[0.8583078999072313, 0.9312040000222623, 1.468135500093922]",2,"[0.007309299893677235, 2.0109049000311643]","[0.09113199985586107, 2.4759966998826712]",1,[1.3163401000201702],[1.9791522999294102],None,302.9353043001611,,,,,,,,,,,,,,,,0601,001,2023-02-06_16h57.47.462,mag_comparison_numeral,2022.2.5,60.00578454579195,
trial,005.png,006.png,005.png,006.png,3,0,right,5,6,0.8333333333333334,high,0,35,35,30,,,,,,,,,,,,,,303.4686815000605,303.4686815000605,303.4686815000605,303.4686815000605,303.4686815000605,303.4686815000605,303.4686815000605,304.43536589993164,304.43536589993164,304.43536589993164,304.43536589993164,304.43536589993164,304.43536589993164,304.43536589993164,304.5020586999599,right,1,1.531508699990809,1,[1.6148012999910861],[2.0782791001256555],2,"[1.3426365999039263, 2.142290399875492]","[1.5509887000080198, 2.5430288000497967]",2,"[1.342937699984759, 2.1107314000837505]","[1.5834115999750793, 2.5434455000795424]",2,"[0.3391647001262754, 2.1109660000074655]","[1.3432321001309901, 2.1427534001413733]",1,[1.6480052000842988],[2.0793379000388086],2,"[1.37582190008834, 2.1433053000364453]","[1.5520766000263393, 2.5443180000875145]",None,306.05214229994453,,,,,,,,,,,,,,,,0601,001,2023-02-06_16h57.47.462,mag_comparison_numeral,2022.2.5,60.00578454579195,
trial,007.png,006.png,007.png,006.png,3,0,left,7,6,0.8571428571428571,high,0,36,36,68,,,,,,,,,,,,,,306.568908700021,306.568908700021,306.568908700021,306.568908700021,306.568908700021,306.568908700021,306.568908700021,307.5189458001405,307.5189458001405,307.5189458001405,307.5189458001405,307.5189458001405,307.5189458001405,307.5189458001405,307.6189536000602,left,1,1.4880311999004334,2,"[1.3383653999771923, 2.026968500111252]","[1.5472313000354916, 2.4907918001990765]",3,"[0.006287100026383996, 1.6110332000534981, 1.8190153001341969]","[0.10677299997769296, 1.7544132999610156, 1.9465413000434637]",2,"[0.0065611000172793865, 1.5482079000212252]","[0.13835909985937178, 1.9791538999415934]",8,"[0.10738699999637902, 0.41048249998129904, 0.7467072999570519, 1.019619599916041, 1.1468508997932076, 1.5484558998141438, 1.7548846998251975, 1.9469699999317527]","[0.13878909987397492, 0.5071154998149723, 0.8434043999295682, 1.0513996998779476, 1.1786942000035197, 1.6116100999061018, 1.8194873998872936, 1.9795863998588175]",2,"[1.3556669999379665, 2.0281883000861853]","[1.5153777000959963, 2.4918976998887956]",2,"[0.0073269999120384455, 1.5800977998878807]","[0.10793619998730719, 1.9474464000668377]",None,309.085856199963,,,,,,,,,,,,,,,,0601,001,2023-02-06_16h57.47.462,mag_comparison_numeral,2022.2.5,60.00578454579195,
trial,005.png,002.png,005.png,002.png,3,0,left,5,2,0.4,medium,0,37,37,41,,,,,,,,,,,,,,309.61917500011623,309.61917500011623,309.61917500011623,309.61917500011623,309.61917500011623,309.61917500011623,309.61917500011623,310.56921410001814,310.56921410001814,310.56921410001814,310.56921410001814,310.56921410001814,310.56921410001814,310.56921410001814,310.65258580003865,left,1,1.1499210000038147,2,"[0.00522430008277297, 1.8525487000588328]","[0.30045350012369454, 2.1405454999767244]",3,"[1.5805279000196606, 1.676116299815476, 1.740082899807021]","[1.6437077999580652, 1.7093515999149531, 1.773047599941492]",2,"[0.8125815999228507, 1.3422841997817159]","[0.8771100998856127, 1.8040056999307126]",5,"[1.005630300147459, 1.3425288000144064, 1.6445570001378655, 1.709920700173825, 1.7736381001304835]","[1.0379319000057876, 1.5812284999992698, 1.67674530018121, 1.7407961999997497, 1.8043743001762778]",2,"[0.007191400043666363, 1.854879700113088]","[0.26982270018197596, 2.14173400006257]",1,[1.3748854999430478],[1.7741409000009298],None,311.7860129000619,,,,,,,,,,,,,,,,0601,001,2023-02-06_16h57.47.462,mag_comparison_numeral,2022.2.5,60.00578454579195,
trial,006.png,005.png,006.png,005.png,3,0,left,6,5,0.8333333333333334,high,0,38,38,12,,,,,,,,,,,,,,312.30271640000865,312.30271640000865,312.30271640000865,312.30271640000865,312.30271640000865,312.30271640000865,312.30271640000865,313.269481100142,313.269481100142,313.269481100142,313.269481100142,313.269481100142,313.269481100142,313.269481100142,313.35306450002827,left,1,1.5694232999812812,3,"[0.0055268001742661, 1.346040400210768, 2.1130038001574576]","[0.19387900014407933, 1.5375487001147121, 2.5777298000175506]",1,[1.6014809999614954],[2.0815886000636965],1,[1.5699998000636697],[2.081943100085482],4,"[0.3386841998435557, 0.8026725999079645, 1.0433191999327391, 1.5384110999293625]","[0.7701512998901308, 1.0105388998053968, 1.1382916998118162, 1.6019341999199241]",3,"[0.006590200122445822, 1.3803205001167953, 2.1140400001313537]","[0.1623271000571549, 1.5077655999921262, 2.5787173002026975]",1,[1.5709133001510054],[2.083322900114581],None,314.9029800000135,,,,,,,,,,,,,,,,0601,001,2023-02-06_16h57.47.462,mag_comparison_numeral,2022.2.5,60.00578454579195,
trial,007.png,009.png,007.png,009.png,3,0,right,7,9,0.7777777777777778,high,0,39,39,70,,,,,,,,,,,,,,315.43648330005817,315.43648330005817,315.43648330005817,315.43648330005817,315.43648330005817,315.43648330005817,315.43648330005817,316.4198288000189,316.4198288000189,316.4198288000189,316.4198288000189,316.4198288000189,316.4198288000189,316.4198288000189,316.45327419997193,right,1,1.4675604000221938,3,"[0.004975099815055728, 1.2846679999493062, 1.6534243999049067]","[0.2440344998613, 1.3798343997914344, 2.083565399982035]",1,[1.4447642001323402],[1.620446000015363],2,"[1.4129502000287175, 2.1480867001228034]","[1.6208961999509484, 2.549358000047505]",3,"[0.2778274000156671, 1.4132328999694437, 2.084600399946794]","[1.2532352998387069, 1.445286100031808, 2.5496618999168277]",1,[1.6549684999044985],[2.0533530998509377],2,"[1.4457980000879616, 2.1488824000116438]","[1.6220615000929683, 2.5502192999701947]",None,318.0366481000092,,,,,,,,,,,,,,,,0601,001,2023-02-06_16h57.47.462,mag_comparison_numeral,2022.2.5,60.00578454579195,
trial,007.png,001.png,007.png,001.png,3,0,left,7,1,0.14285714285714285,low,0,40,40,20,,,,,,,,,,,,,,318.5367749000434,318.5367749000434,318.5367749000434,318.5367749000434,318.5367749000434,318.5367749000434,318.5367749000434,319.50342720001936,319.50342720001936,319.50342720001936,319.50342720001936,319.50342720001936,319.50342720001936,319.50342720001936,319.5701012001373,left,1,1.4636715999804437,2,"[1.3234812000300735, 1.945421400014311]","[1.4509228998795152, 2.489820000017062]",0,,,2,"[0.010437099961563945, 1.483706699917093]","[0.10683219996280968, 1.9136773999780416]",7,"[0.010783599922433496, 0.6257567000575364, 0.9169141999445856, 1.052911400096491, 1.1160271998960525, 1.2457824000157416, 1.4841704999562353]","[0.1071399999782443, 0.7602621999103576, 0.9891260999720544, 1.0845470998901874, 1.1798151000402868, 1.2770543999504298, 1.8820766999851912]",3,"[1.32635369990021, 1.3890720999334008, 1.947330900002271]","[1.3575488000642508, 1.4526740999426693, 2.4911783998832107]",2,"[0.011491799959912896, 1.5177148999646306]","[0.07511390000581741, 1.882590200053528]",None,321.0369689001236,,,,,,,,,,,,,,,,0601,001,2023-02-06_16h57.47.462,mag_comparison_numeral,2022.2.5,60.00578454579195,
trial,005.png,001.png,005.png,001.png,3,0,left,5,1,0.2,low,0,41,41,54,,,,,,,,,,,,,,321.5538829001598,321.5538829001598,321.5538829001598,321.5538829001598,321.5538829001598,321.5538829001598,321.5538829001598,322.5206049999688,322.5206049999688,322.5206049999688,322.5206049999688,322.5206049999688,322.5206049999688,322.5206049999688,322.57032350008376,left,1,1.4227943001314998,5,"[0.005347399972379208, 1.3417199000250548, 1.4044757999945432, 1.5011718000750989, 2.0451938998885453]","[0.17236880003474653, 1.373153300024569, 1.4693594998680055, 1.5335860999766737, 2.4784730998799205]",1,[1.9658097999636084],[2.045483099995181],1,[1.5818129999097437],[2.0458138999529183],2,"[0.39767710003070533, 1.5346892999950796]","[0.9097937999758869, 1.9662198999430984]",3,"[0.0065848000813275576, 1.3429167000576854, 2.0790069000795484]","[0.1736638001166284, 1.50225600018166, 2.4801962000783533]",1,[1.5826139999553561],[2.0467827999964356],None,324.05387030006386,,,,,,,,,,,,,,,,0601,001,2023-02-06_16h57.47.462,mag_comparison_numeral,2022.2.5,60.00578454579195,
trial,007.png,004.png,007.png,004.png,3,0,left,7,4,0.5714285714285714,medium,0,42,42,28,,,,,,,,,,,,,,324.58719170000404,324.58719170000404,324.58719170000404,324.58719170000404,324.58719170000404,324.58719170000404,324.58719170000404,325.5872953000944,325.5872953000944,325.5872953000944,325.5872953000944,325.5872953000944,325.5872953000944,325.5872953000944,325.6373535001185,left,1,1.3643151998985559,2,"[1.813670099945739, 2.069743499858305]","[2.0369445998221636, 2.4052110000047833]",1,[1.4141804000828415],[1.7336256001144648],1,[1.4146493999287486],[1.7338690999895334],0,,,1,[1.815002600196749],[2.4065228002145886],1,[1.415567000163719],[1.7348126000724733],None,327.020692500053,,,,,,,,,,,,,,,,0601,001,2023-02-06_16h57.47.462,mag_comparison_numeral,2022.2.5,60.00578454579195,
trial,008.png,009.png,008.png,009.png,3,0,right,8,9,0.8888888888888888,high,0,43,43,17,,,,,,,,,,,,,,327.53747610002756,327.53747610002756,327.53747610002756,327.53747610002756,327.53747610002756,327.53747610002756,327.53747610002756,328.5045231000986,328.5045231000986,328.5045231000986,328.5045231000986,328.5045231000986,328.5045231000986,328.5045231000986,328.57092120009474,right,1,1.399180900072679,2,"[0.005361999850720167, 1.2943940998520702]","[0.03057429986074567, 1.9034321999642998]",0,,,1,[1.9353056999389082],[2.3994891000911593],5,"[0.3349573998712003, 0.670594499912113, 0.8952355000656098, 1.0706442000810057, 1.9044446998741478]","[0.6388814998790622, 0.7360594000201672, 1.0070078000426292, 1.2952783999498934, 2.3997700999025255]",2,"[0.006513400003314018, 1.4718790999613702]","[0.031302900053560734, 1.8708092998713255]",1,[1.9361916999332607],[2.4004424999002367],None,329.971065599937,,,,,,,,,,,,,,,,0601,001,2023-02-06_16h57.47.462,mag_comparison_numeral,2022.2.5,60.00578454579195,
trial,004.png,009.png,004.png,009.png,3,0,right,4,9,0.4444444444444444,medium,0,44,44,65,,,,,,,,,,,,,,330.4877558001317,330.4877558001317,330.4877558001317,330.4877558001317,330.4877558001317,330.4877558001317,330.4877558001317,331.48782550008036,331.48782550008036,331.48782550008036,331.48782550008036,331.48782550008036,331.48782550008036,331.48782550008036,331.5047335999552,right,1,1.2153958999551833,4,"[1.2875687000341713, 1.6562916000839323, 1.7499281000345945, 1.7996282998938113]","[1.4966490999795496, 1.7354589998722076, 1.7677356998901814, 1.8318334999494255]",1,[2.167810200015083],[2.295552099822089],2,"[0.005846800049766898, 1.896762999938801]","[0.23225419991649687, 2.2958053001202643]",3,"[0.006134399911388755, 1.0959921998437494, 1.8326912999618798]","[0.23257799982093275, 1.256774199893698, 2.16875179996714]",1,[1.2888329999987036],[1.8333060999866575],2,"[0.006792800035327673, 1.8978497001808137]","[0.18538930010981858, 2.296686900081113]",None,332.8212983000558,,,,,,,,,,,,,,,,0601,001,2023-02-06_16h57.47.462,mag_comparison_numeral,2022.2.5,60.00578454579195,
trial,004.png,009.png,004.png,009.png,3,0,right,4,9,0.4444444444444444,medium,0,45,45,29,,,,,,,,,,,,,,333.3215324000921,333.3215324000921,333.3215324000921,333.3215324000921,333.3215324000921,333.3215324000921,333.3215324000921,334.3214670000598,334.3214670000598,334.3214670000598,334.3214670000598,334.3214670000598,334.3214670000598,334.3214670000598,334.4049605000764,right,1,1.3097024001181126,1,[1.4172748001292348],[1.9453495000489056],2,"[0.005801300052553415, 1.978883600095287]","[0.20221450016833842, 2.345444800099358]",2,"[0.006170300068333745, 1.979338699951768]","[0.20249120006337762, 2.345762100070715]",4,"[0.20276809995993972, 0.8743903001304716, 1.003456300124526, 1.1463351000566036]","[0.6827663001604378, 0.9071429001633078, 1.0828901000786573, 1.1781222999561578]",1,[1.4186134999617934],[1.948189300019294],2,"[0.007139099994674325, 2.012196199968457]","[0.20338429999537766, 2.346714099869132]",None,335.68819870008156,,,,,,,,,,,,,,,,0601,001,2023-02-06_16h57.47.462,mag_comparison_numeral,2022.2.5,60.00578454579195,
trial,008.png,007.png,008.png,007.png,3,0,left,8,7,0.875,high,0,46,46,51,,,,,,,,,,,,,,336.2048468000721,336.2048468000721,336.2048468000721,336.2048468000721,336.2048468000721,336.2048468000721,336.2048468000721,337.2050193999894,337.2050193999894,337.2050193999894,337.2050193999894,337.2050193999894,337.2050193999894,337.2050193999894,337.23837100015953,left,1,1.5219582000281662,3,"[1.3310350000392646, 2.0659575001336634, 2.33836039993912]","[1.538106600055471, 2.3060842999257147, 2.5780184001196176]",1,[0.006273000035434961],[0.16352370008826256],2,"[0.006593199912458658, 1.5719886000733823]","[0.19450689991936088, 2.0351364999078214]",3,"[0.19478599983267486, 0.7070591000374407, 1.5391335999593139]","[0.22672949987463653, 0.7401826998684555, 2.0667643998749554]",2,"[1.3323272000998259, 2.100291500100866]","[1.5076997000724077, 2.5793701999355108]",2,"[0.007982099894434214, 1.603583199903369]","[0.1646534998435527, 2.0033950998913497]",None,338.8218016999308,,,,,,,,,,,,,,,,0601,001,2023-02-06_16h57.47.462,mag_comparison_numeral,2022.2.5,60.00578454579195,
trial,004.png,005.png,004.png,005.png,3,0,right,4,5,0.8,high,0,47,47,27,,,,,,,,,,,,,,339.3388209999539,339.3388209999539,339.3388209999539,339.3388209999539,339.3388209999539,339.3388209999539,339.3388209999539,340.3220508999657,340.3220508999657,340.3220508999657,340.3220508999657,340.3220508999657,340.3220508999657,340.3220508999657,340.388691799948,right,1,1.3251878002192825,2,"[0.005858699791133404, 1.6380937998183072]","[0.08500669989734888, 1.8934888998046517]",1,[1.9746719000395387],[2.3685459999833256],1,[1.9434227000456303],[2.3688391998875886],8,"[0.13418819988146424, 0.5030877999961376, 0.9040345998946577, 1.0629783000331372, 1.1594833000563085, 1.2499200999736786, 1.302855100017041, 1.9437136999331415]","[0.1845726000610739, 0.5989830000326037, 0.9664519999641925, 1.09521279996261, 1.2381659999955446, 1.2719014999456704, 1.3976499999407679, 1.97542480006814]",2,"[0.00715620000846684, 1.6072148999664932]","[0.0549446998629719, 1.8948240999598056]",1,[1.9761740998364985],[2.3703993998933583],space,343.5390383999329,,341.7055107001215,341.7055107001215,1.7420925002079457,,,,,,,,,,,,0601,001,2023-02-06_16h57.47.462,mag_comparison_numeral,2022.2.5,60.00578454579195,
trial,008.png,007.png,008.png,007.png,3,0,left,8,7,0.875,high,0,48,48,15,,,,,,,,,,,,,,344.0390564999543,344.0390564999543,344.0390564999543,344.0390564999543,344.0390564999543,344.0390564999543,344.0390564999543,345.0390995000489,345.0390995000489,345.0390995000489,345.0390995000489,345.0390995000489,345.0390995000489,345.0390995000489,345.0724224001169,left,1,1.7926514998544008,4,"[1.3691364999394864, 2.1698070999700576, 2.4740538999903947, 2.633574599865824]","[1.4023658998776227, 2.441473999992013, 2.6022388997953385, 2.8420885999221355]",0,,,1,[1.4335940000601113],[2.1381292000878602],9,"[0.059151200111955404, 0.362530899932608, 0.7003536000847816, 0.8268335999455303, 0.9700881999451667, 1.0988760001491755, 1.2426557999569923, 1.3063916999381036, 1.4338909999933094]","[0.33019670005887747, 0.6662208000198007, 0.7948315001558512, 0.9067861000075936, 1.003139200154692, 1.1314131999388337, 1.2746542999520898, 1.338622400071472, 2.1384161000605673]",1,[2.202694999985397],[2.8435347001068294],2,"[1.4666701001115143, 1.6434818000998348]","[1.4995697000995278, 2.138917300151661]",None,346.9059246999677,,,,,,,,,,,,,,,,0601,001,2023-02-06_16h57.47.462,mag_comparison_numeral,2022.2.5,60.00578454579195,
trial,001.png,008.png,001.png,008.png,3,0,right,1,8,0.125,low,0,49,49,21,,,,,,,,,,,,,,347.4559102000203,347.4559102000203,347.4559102000203,347.4559102000203,347.4559102000203,347.4559102000203,347.4559102000203,348.42270230012946,348.42270230012946,348.42270230012946,348.42270230012946,348.42270230012946,348.42270230012946,348.42270230012946,348.48961229994893,right,1,1.1207693999167532,1,[1.328195699956268],[1.760321999900043],1,[1.8407010999508202],[2.1758605998475105],1,[1.80992540018633],[2.1762962001375854],4,"[0.6242360998876393, 0.7370112999342382, 0.8324837000109255, 1.1058652999345213]","[0.6557503000367433, 0.7507471998687834, 0.8652331999037415, 1.1685508999507874]",1,[1.3294657999649644],[1.761869200039655],1,[1.8420130000449717],[2.177060900023207],None,349.639477299992,350.1896530999802,,,,,,,,,,,,,,,0601,001,2023-02-06_16h57.47.462,mag_comparison_numeral,2022.2.5,60.00578454579195,
trial,009.png,007.png,009.png,007.png,3,0,left,9,7,0.7777777777777778,high,0,50,50,16,,,,,,,,,,,,,,350.1896530999802,350.1896530999802,350.1896530999802,350.1896530999802,350.1896530999802,350.1896530999802,350.1896530999802,351.173075000057,351.173075000057,351.173075000057,351.173075000057,351.173075000057,351.173075000057,351.173075000057,351.20636720000766,left,1,1.3863695999607444,2,"[1.3185038999654353, 1.9430710999295115]","[1.447541199857369, 2.422980499919504]",3,"[0.009946099948137999, 1.575941100018099, 1.6871440999675542]","[0.0723029999062419, 1.6233459000941366, 1.879731599939987]",2,"[0.010335700120776892, 1.479713900014758]","[0.07261510007083416, 1.9114956001285464]",5,"[0.07302400004118681, 0.15195149998180568, 0.27915659989230335, 1.4800076000392437, 1.6238778000697494]","[0.10419109999202192, 0.21650599990971386, 0.31252979999408126, 1.5765317999757826, 1.6879279999993742]",2,"[1.3195152999833226, 1.9920514000114053]","[1.44879569998011, 2.424121499992907]",2,"[0.01140049984678626, 1.5135276999790221]","[0.041911699809134007, 1.880901499884203]",None,352.63977370015346,,,,,,,,,,,,,,,,0601,001,2023-02-06_16h57.47.462,mag_comparison_numeral,2022.2.5,60.00578454579195,
trial,005.png,009.png,005.png,009.png,3,0,right,5,9,0.5555555555555556,medium,0,51,51,49,,,,,,,,,,,,,,353.1398142001126,353.1398142001126,353.1398142001126,353.1398142001126,353.1398142001126,353.1398142001126,353.1398142001126,354.1399112001527,354.1399112001527,354.1399112001527,354.1399112001527,354.1399112001527,354.1399112001527,354.1399112001527,354.17330180015415,right,1,1.459484999999404,2,"[0.00557730020955205, 1.643792600138113]","[0.17277520010247827, 2.1074220000300556]",4,"[1.4050167000386864, 1.4686016999185085, 1.5484213999006897, 2.316152899991721]","[1.4367015999741852, 1.5006816999521106, 1.5807183000724763, 2.3343485000077635]",2,"[1.3725223001092672, 2.1399755999445915]","[1.5810277999844402, 2.509943600045517]",7,"[0.4298545001074672, 1.2444023001007736, 1.3085265001282096, 1.43729960010387, 1.5012310999445617, 2.140242900000885, 2.3348878000397235]","[0.47654930013231933, 1.2770052999258041, 1.4057172001339495, 1.4692969999741763, 1.5491607999429107, 2.316758899949491, 2.510194699978456]",2,"[0.007219800027087331, 1.645023199962452]","[0.17372850002720952, 2.10868819989264]",1,[2.173886700067669],[2.510705200023949],None,355.67363009997644,,,,,,,,,,,,,,,,0601,001,2023-02-06_16h57.47.462,mag_comparison_numeral,2022.2.5,60.00578454579195,
trial,007.png,003.png,007.png,003.png,3,0,left,7,3,0.42857142857142855,medium,0,52,52,44,,,,,,,,,,,,,,356.19018210005015,356.19018210005015,356.19018210005015,356.19018210005015,356.19018210005015,356.19018210005015,356.19018210005015,357.1902839001268,357.1902839001268,357.1902839001268,357.1902839001268,357.1902839001268,357.1902839001268,357.1902839001268,357.24027279997244,left,1,1.4889322000090033,2,"[1.408698100131005, 2.063930000178516]","[1.568365199957043, 2.5451549000572413]",0,,,1,[1.6016561000142246],[2.032886500004679],11,"[0.29047070001251996, 0.4652556001674384, 0.5298490000423044, 0.6248025000095367, 0.8013256001286209, 0.8654334000311792, 0.994367300067097, 1.1373914000578225, 1.2327575001399964, 1.2978162001818419, 1.5691985001321882]","[0.43370670010335743, 0.4972752002067864, 0.5933207999914885, 0.6567228999920189, 0.8341973000206053, 0.8980521000921726, 1.1170793001074344, 1.1693732000421733, 1.2652062000706792, 1.3291566001717001, 2.0333337001502514]",1,[2.0651215000543743],[2.5461931000463665],1,[1.6341748000122607],[2.0025728999171406],None,358.7738302999642,,,,,,,,,,,,,,,,0601,001,2023-02-06_16h57.47.462,mag_comparison_numeral,2022.2.5,60.00578454579195,
trial,002.png,005.png,002.png,005.png,3,0,right,2,5,0.4,medium,0,53,53,59,,,,,,,,,,,,,,359.3071618000977,359.3071618000977,359.3071618000977,359.3071618000977,359.3071618000977,359.3071618000977,359.3071618000977,360.2739007000346,360.2739007000346,360.2739007000346,360.2739007000346,360.2739007000346,360.2739007000346,360.2739007000346,360.3405512999743,right,1,1.1810737000778317,3,"[0.005431599915027618, 1.3799978999886662, 1.4437734000384808]","[0.06891759997233748, 1.4120326999109238, 1.8118473999202251]",1,[1.8754654999356717],[2.2123469000216573],1,[1.8129501999355853],[2.2126412999350578],3,"[0.6137318999972194, 1.285369399935007, 1.8132718000561]","[1.251476800069213, 1.348285699961707, 1.8761632000096142]",2,"[0.006594200152903795, 1.3811888000927866]","[0.03728530020453036, 1.781922599999234]",1,[1.8447610000148416],[2.213926700176671],None,361.540712099988,,,,,,,,,,,,,,,,0601,001,2023-02-06_16h57.47.462,mag_comparison_numeral,2022.2.5,60.00578454579195,
trial,009.png,004.png,009.png,004.png,3,0,left,9,4,0.4444444444444444,medium,0,54,54,47,,,,,,,,,,,,,,362.0573487000074,362.0573487000074,362.0573487000074,362.0573487000074,362.0573487000074,362.0573487000074,362.0573487000074,363.0575499001425,363.0575499001425,363.0575499001425,363.0575499001425,363.0575499001425,363.0575499001425,363.0575499001425,363.09073910000734,left,1,1.1428157999180257,2,"[1.3851507999934256, 2.008851099992171]","[1.5442507001571357, 2.186873300001025]",3,"[0.010264900047332048, 0.1374886000994593, 1.5776188001036644]","[0.10548619995824993, 0.16928929998539388, 1.9773448000196368]",2,"[0.010567700024694204, 1.545032300055027]","[0.16956859990023077, 1.9776216000318527]",6,"[0.10608729999512434, 0.5379349000286311, 0.8412647000513971, 1.088477100012824, 1.1783888000063598, 1.977976000169292]","[0.1380903001409024, 0.6811571000143886, 0.8743820001836866, 1.147103999974206, 1.3384146001189947, 2.0096804001368582]",1,[2.0431260999757797],[2.1880917998496443],2,"[0.011429700069129467, 1.578858199995011]","[0.17100530001334846, 1.9786871999967843]",None,364.2576161001343,,,,,,,,,,,,,,,,0601,001,2023-02-06_16h57.47.462,mag_comparison_numeral,2022.2.5,60.00578454579195,
trial,007.png,008.png,007.png,008.png,3,0,right,7,8,0.875,high,0,55,55,33,,,,,,,,,,,,,,364.7910222001374,364.7910222001374,364.7910222001374,364.7910222001374,364.7910222001374,364.7910222001374,364.7910222001374,365.7576958001591,365.7576958001591,365.7576958001591,365.7576958001591,365.7576958001591,365.7576958001591,365.7576958001591,365.8244324999396,right,1,1.4895899000111967,2,"[0.02812690008431673, 1.4042869999539107]","[0.10797929996624589, 2.011420000111684]",1,[2.0757234999909997],[2.5400763999205083],1,[2.044226899975911],[2.5403545999433845],5,"[0.4767318998929113, 0.9729190000798553, 1.1016370998695493, 1.2448265000712126, 1.3086794998962432]","[0.6371619000565261, 1.0051557999104261, 1.1323482000734657, 1.2706120999064296, 1.3401204999536276]",2,"[0.030050700064748526, 1.67689110012725]","[0.10954370000399649, 2.0126030000392348]",1,[2.076904699904844],[2.541150299832225],None,367.3245594999753,,,,,,,,,,,,,,,,0601,001,2023-02-06_16h57.47.462,mag_comparison_numeral,2022.2.5,60.00578454579195,
trial,009.png,001.png,009.png,001.png,3,0,left,9,1,0.1111111111111111,low,0,56,56,58,,,,,,,,,,,,,,367.84119469998404,367.84119469998404,367.84119469998404,367.84119469998404,367.84119469998404,367.84119469998404,367.84119469998404,368.8082113000564,368.8082113000564,368.8082113000564,368.8082113000564,368.8082113000564,368.8082113000564,368.8082113000564,368.8746797000058,left,1,1.3921248000115156,1,[1.8378049999009818],[2.398293799953535],1,[0.030193299986422062],[0.19117329991422594],2,"[0.0057843998074531555, 1.3744173999875784]","[0.2234292000066489, 1.8071487999986857]",2,"[0.1919562998227775, 0.4951791998464614]","[0.22367009986191988, 1.8074305998161435]",1,[1.8713885000906885],[2.399410300189629],2,"[0.006967199966311455, 1.5035894999746233]","[0.1925420998595655, 1.7766674000304192]",None,370.2748312000185,,,,,,,,,,,,,,,,0601,001,2023-02-06_16h57.47.462,mag_comparison_numeral,2022.2.5,60.00578454579195,
trial,006.png,005.png,006.png,005.png,3,0,left,6,5,0.8333333333333334,high,0,57,57,48,,,,,,,,,,,,,,370.7915884000249,370.7915884000249,370.7915884000249,370.7915884000249,370.7915884000249,370.7915884000249,370.7915884000249,371.7916679000482,371.7916679000482,371.7916679000482,371.7916679000482,371.7916679000482,371.7916679000482,371.7916679000482,371.808304999955,left,1,1.4474973001051694,2,"[1.6110137000214309, 2.3148807000834495]","[1.8832827000878751, 2.491397000150755]",0,,,2,"[1.3547551999799907, 1.9145829998888075]","[1.5471830999013036, 2.2833060999400914]",2,"[0.5392634000163525, 1.8841373000759631]","[1.5474709998816252, 2.284085900057107]",2,"[1.6122192998882383, 2.3161917000543326]","[1.852178799919784, 2.4927465999498963]",2,"[1.3556262999773026, 1.9479990000836551]","[1.516713700024411, 2.2523398001212627]",None,373.27510279999115,,,,,,,,,,,,,,,,0601,001,2023-02-06_16h57.47.462,mag_comparison_numeral,2022.2.5,60.00578454579195,
trial,007.png,004.png,007.png,004.png,3,0,left,7,4,0.5714285714285714,medium,0,58,58,64,,,,,,,,,,,,,,373.80850720009767,373.80850720009767,373.80850720009767,373.80850720009767,373.80850720009767,373.80850720009767,373.80850720009767,374.77524380013347,374.77524380013347,374.77524380013347,374.77524380013347,374.77524380013347,374.77524380013347,374.77524380013347,374.84189020004123,left,1,1.0241247001104057,2,"[0.005689899902790785, 1.839693200075999]","[0.09390480001457036, 2.0466414999682456]",1,[1.4698108001612127],[1.806495200144127],1,[1.3421614000108093],[1.806768500013277],9,"[0.12718480010516942, 0.23958600009791553, 0.3991676000878215, 0.5117532999720424, 0.5755344000644982, 0.7350951000116765, 0.7990600999910384, 1.039795899996534, 1.807108199922368]","[0.17547850008122623, 0.3668122999370098, 0.4639242999255657, 0.5428794999606907, 0.703341200016439, 0.7671616000588983, 1.0078360000625253, 1.470459199976176, 1.8406207000371069]",2,"[0.006988100009039044, 1.8714054999873042]","[0.06305220001377165, 2.0479045999236405]",1,[1.3762280000373721],[1.7759219000581652],None,375.8755662001204,,,,,,,,,,,,,,,,0601,001,2023-02-06_16h57.47.462,mag_comparison_numeral,2022.2.5,60.00578454579195,
trial,006.png,003.png,006.png,003.png,3,0,left,6,3,0.5,medium,0,59,59,61,,,,,,,,,,,,,,376.39212259999476,376.39212259999476,376.39212259999476,376.39212259999476,376.39212259999476,376.39212259999476,376.39212259999476,377.37549280002713,377.37549280002713,377.37549280002713,377.37549280002713,377.37549280002713,377.37549280002713,377.37549280002713,377.4087507999502,left,1,0.9932719001080841,2,"[0.006419399986043572, 1.8713044000323862]","[0.1987336000893265, 2.043387700105086]",1,[1.5794804999604821],[1.8375027999281883],1,[1.5055015999823809],[1.8380790001247078],2,"[0.5035812000278383, 1.5397801999934018]","[1.304974699858576, 1.5808912999927998]",2,"[0.007758399937301874, 1.873934700153768]","[0.16853530006483197, 2.046826899982989]",1,[1.5409842000808567],[1.8092527999542654],None,378.4592806000728,,,,,,,,,,,,,,,,0601,001,2023-02-06_16h57.47.462,mag_comparison_numeral,2022.2.5,60.00578454579195,
trial,005.png,004.png,005.png,004.png,3,0,left,5,4,0.8,high,0,60,60,9,,,,,,,,,,,,,,378.99278690014035,378.99278690014035,378.99278690014035,378.99278690014035,378.99278690014035,378.99278690014035,378.99278690014035,379.9925760999322,379.9925760999322,379.9925760999322,379.9925760999322,379.9925760999322,379.9925760999322,379.9925760999322,380.02614650013857,left,1,1.7592286998406053,2,"[1.3521635998040438, 2.2055386998690665]","[1.518512099981308, 2.8170232998672873]",0,,,1,[1.5513368998654187],[2.206662500044331],5,"[0.27135300007648766, 0.3641939000226557, 0.4839125999715179, 0.6395573001354933, 1.5518930000253022]","[0.30293980007991195, 0.46540190000087023, 0.5438681000377983, 0.7311515000183135, 2.2071959001477808]",2,"[1.3545389000792056, 2.2077969999518245]","[1.5209274000953883, 2.819468199973926]",1,[1.5894404998980463],[2.145604700082913],None,381.8260105000809,,,,,,,,,,,,,,,,0601,001,2023-02-06_16h57.47.462,mag_comparison_numeral,2022.2.5,60.00578454579195,
trial,001.png,006.png,001.png,006.png,3,0,right,1,6,0.16666666666666666,low,0,61,61,1,,,,,,,,,,,,,,382.35941369994543,382.35941369994543,382.35941369994543,382.35941369994543,382.35941369994543,382.35941369994543,382.35941369994543,383.3099317001179,383.3099317001179,383.3099317001179,383.3099317001179,383.3099317001179,383.3099317001179,383.3099317001179,383.3593280001078,right,1,0.9610195001587272,1,[1.3385154001880437],[1.5790046001784503],1,[1.6433308999985456],[1.9528559998143464],1,[1.6116815998684615],[1.9531427999027073],4,"[0.31804649997502565, 0.472467599902302, 0.75002869986929, 1.6122328999917954]","[0.37600129982456565, 0.5041994999628514, 0.8124331999570131, 1.6444279998540878]",1,[1.3453758999239653],[1.5811902000568807],1,[1.646690099965781],[1.954270799877122],None,384.34310359996744,,,,,,,,,,,,,,,,0601,001,2023-02-06_16h57.47.462,mag_comparison_numeral,2022.2.5,60.00578454579195,
trial,003.png,007.png,003.png,007.png,3,0,right,3,7,0.42857142857142855,medium,0,62,62,26,,,,,,,,,,,,,,384.87641300004907,384.87641300004907,384.87641300004907,384.87641300004907,384.87641300004907,384.87641300004907,384.87641300004907,385.8432452001143,385.8432452001143,385.8432452001143,385.8432452001143,385.8432452001143,385.8432452001143,385.8432452001143,385.90980629995465,right,1,1.2284913000185043,1,[1.446777099976316],[1.8765767000149935],1,[0.007407099939882755],[0.19919359986670315],2,"[0.0077569999266415834, 1.881457099923864]","[0.19955349992960691, 2.2443624997977167]",4,"[0.44412550004199147, 0.9705817000940442, 1.0365765001624823, 1.8821521000936627]","[0.9352920001838356, 0.9998121000826359, 1.083786000031978, 2.2470734000671655]",1,[1.4489261000417173],[1.8427528000902385],2,"[0.00877700001001358, 1.9186995001509786]","[0.20061070006340742, 2.248345300089568]",None,387.1266006999649,,,,,,,,,,,,,,,,0601,001,2023-02-06_16h57.47.462,mag_comparison_numeral,2022.2.5,60.00578454579195,
trial,002.png,009.png,002.png,009.png,3,0,right,2,9,0.2222222222222222,low,0,63,63,24,,,,,,,,,,,,,,387.6933351000771,387.6933351000771,387.6933351000771,387.6933351000771,387.6933351000771,387.6933351000771,387.6933351000771,388.6435072000604,388.6435072000604,388.6435072000604,388.6435072000604,388.6435072000604,388.6435072000604,388.6435072000604,388.7101998999715,right,1,1.0359789999201894,1,[1.3539601999800652],[1.7058133999817073],1,[1.7745893001556396],[2.0568820000626147],1,[1.7414036998525262],[2.0574560998938978],5,"[0.15599459991790354, 0.21318399999290705, 0.5923804000485688, 0.9618414998985827, 1.0564536000601947]","[0.18518889998085797, 0.5597603998612612, 0.8939225999638438, 0.996682999888435, 1.1131927000824362]",1,[1.5407278998754919],[1.708085599821061],1,[1.7773797002155334],[2.0591881000436842],None,389.7438145999331,390.3100225001108,,,,,,,,,,,,,,,0601,001,2023-02-06_16h57.47.462,mag_comparison_numeral,2022.2.5,60.00578454579195,
trial,001.png,009.png,001.png,009.png,3,0,right,1,9,0.1111111111111111,low,0,64,64,4,,,,,,,,,,,,,,390.3100225001108,390.3100225001108,390.3100225001108,390.3100225001108,390.3100225001108,390.3100225001108,390.3100225001108,391.2768820000347,391.2768820000347,391.2768820000347,391.2768820000347,391.2768820000347,391.2768820000347,391.2768820000347,391.3437205001246,right,1,1.1876107999123633,2,"[1.3445921998936683, 1.820795699954033]","[1.3765936999116093, 1.8524420000612736]",3,"[0.013435899978503585, 1.8844822000246495, 2.108853500103578]","[0.17625050013884902, 2.077624100027606, 2.222113800002262]",2,"[0.013797600055113435, 1.8848335999064147]","[0.20967740006744862, 2.22256590006873]",6,"[0.2103240001015365, 0.574748600134626, 0.849913600133732, 0.9136844000313431, 1.8536909001413733, 2.078403600025922]","[0.24416050012223423, 0.6062783000525087, 0.8820908002089709, 0.9801134001463652, 1.885226100217551, 2.1096749000716954]",1,[1.3485267001669854],[1.82224790006876],3,"[0.014889700105413795, 1.917929199989885, 2.0463060999754816]","[0.17875190009362996, 1.9515072000212967, 2.223940300056711]",None,392.54357170010917,,,,,,,,,,,,,,,,0601,001,2023-02-06_16h57.47.462,mag_comparison_numeral,2022.2.5,60.00578454579195,
trial,009.png,004.png,009.png,004.png,3,0,left,9,4,0.4444444444444444,medium,0,65,65,11,,,,,,,,,,,,,,393.0439111001324,393.0439111001324,393.0439111001324,393.0439111001324,393.0439111001324,393.0439111001324,393.0439111001324,394.0436826001387,394.0436826001387,394.0436826001387,394.0436826001387,394.0436826001387,394.0436826001387,394.0436826001387,394.07705139997415,left,1,1.628280800068751,2,"[1.3025561000686139, 2.145877900067717]","[1.6149596001487225, 2.675044500036165]",1,[1.6702626999467611],[2.082125300075859],1,[1.6157311000861228],[2.082955799996853],7,"[0.3719369999598712, 0.5125734999310225, 0.6115045000333339, 0.8355725000146776, 1.0078273999970406, 1.6470306999981403, 2.0835567999165505]","[0.43500220007263124, 0.578639900078997, 0.805301999906078, 0.9428091000299901, 1.199407999869436, 1.6709735998883843, 2.1476666000671685]",2,"[1.3449335000477731, 2.148201100062579]","[1.6164094998966902, 2.677131999982521]",1,[1.6475910998415202],[2.0558380999136716],None,395.76081850007176,,,,,,,,,,,,,,,,0601,001,2023-02-06_16h57.47.462,mag_comparison_numeral,2022.2.5,60.00578454579195,
trial,005.png,001.png,005.png,001.png,3,0,left,5,1,0.2,low,0,66,66,18,,,,,,,,,,,,,,396.29391729994677,396.29391729994677,396.29391729994677,396.29391729994677,396.29391729994677,396.29391729994677,396.29391729994677,397.2610069999937,397.2610069999937,397.2610069999937,397.2610069999937,397.2610069999937,397.2610069999937,397.2610069999937,397.3277982000727,left,1,1.5697902999818325,1,[1.921107199974358],[2.620472199982032],2,"[1.4876490000169724, 1.5558420000597835]","[1.522580600110814, 1.6225117999128997]",1,[1.3856776000466198],[1.8880910999141634],3,"[0.5914141000248492, 1.523882099892944, 1.6236518998630345]","[1.4886830998584628, 1.5568807998206466, 1.8888117999304086]",1,[1.9564096999820322],[2.6225476001854986],1,[1.4239779999479651],[1.8899026999715716],None,398.9275178001262,,,,,,,,,,,,,,,,0601,001,2023-02-06_16h57.47.462,mag_comparison_numeral,2022.2.5,60.00578454579195,
trial,007.png,001.png,007.png,001.png,3,0,left,7,1,0.14285714285714285,low,0,67,67,56,,,,,,,,,,,,,,399.4444143001456,399.4444143001456,399.4444143001456,399.4444143001456,399.4444143001456,399.4444143001456,399.4444143001456,400.41091160010546,400.41091160010546,400.41091160010546,400.41091160010546,400.41091160010546,400.41091160010546,400.41091160010546,400.47766870004125,left,1,1.48498549987562,1,[2.031556300120428],[2.5105628001037985],3,"[1.6638811000157148, 1.743351599900052, 1.8716555999126285]","[1.6954789999872446, 1.7751255000475794, 1.9040933998767287]",1,[1.4360201000235975],[1.999196199933067],8,"[0.15636330004781485, 0.8288245999719948, 0.9581669999752194, 1.4051109000574797, 1.6967200001236051, 1.777447500033304, 1.8415151999797672, 1.905187000054866]","[0.7974994000978768, 0.9261670999694616, 1.325223300140351, 1.6649947999976575, 1.7444734999444336, 1.8096155000384897, 1.8728104999754578, 2.033338699955493]",1,[2.0666755998972803],[2.5140557999257],2,"[1.5028079999610782, 1.5650989999994636]","[1.5334078997839242, 1.9704808997921646]",None,401.9947508000769,,,,,,,,,,,,,,,,0601,001,2023-02-06_16h57.47.462,mag_comparison_numeral,2022.2.5,60.00578454579195,
trial,001.png,006.png,001.png,006.png,3,0,right,1,6,0.16666666666666666,low,0,68,68,37,,,,,,,,,,,,,,402.52787690004334,402.52787690004334,402.52787690004334,402.52787690004334,402.52787690004334,402.52787690004334,402.52787690004334,403.4780103000812,403.4780103000812,403.4780103000812,403.4780103000812,403.4780103000812,403.4780103000812,403.4780103000812,403.5451043001376,right,1,1.4173747000750154,1,[1.4104907000437379],[1.4794246000237763],4,"[1.7877462999895215, 1.9073242999147624, 2.0201753999572247, 2.357647299999371]","[1.8755594999529421, 1.9870897999498993, 2.322720799827948, 2.4217449999414384]",1,[1.6894139000214636],[2.422510900069028],7,"[0.2736373001243919, 0.7100236001424491, 1.3196994999889284, 1.6909251001197845, 1.8770862999372184, 1.9885233000386506, 2.3240445000119507]","[0.6767049999907613, 0.7684724000282586, 1.3794066000264138, 1.7890548999421299, 1.9088753999676555, 2.021453500026837, 2.359126799972728]",1,[1.4142663998063654],[1.6561389998532832],1,[1.7249152001459152],[2.42467480013147],None,404.9616568000056,,,,,,,,,,,,,,,,0601,001,2023-02-06_16h57.47.462,mag_comparison_numeral,2022.2.5,60.00578454579195,
trial,001.png,007.png,001.png,007.png,3,0,right,1,7,0.14285714285714285,low,0,69,69,38,,,,,,,,,,,,,,405.52837810013443,405.52837810013443,405.52837810013443,405.52837810013443,405.52837810013443,405.52837810013443,405.52837810013443,406.4782627001405,406.4782627001405,406.4782627001405,406.4782627001405,406.4782627001405,406.4782627001405,406.4782627001405,406.544973900076,right,1,1.3533224000129849,1,[1.3496497001033276],[1.6242430999409407],1,[0.009498900035396218],[0.2192722000181675],2,"[0.009948499966412783, 1.897766500012949]","[0.21987210004590452, 2.3618431999348104]",8,"[0.18818119983188808, 0.4222132998984307, 0.5213045999407768, 0.6821200998965651, 0.7627250000368804, 0.9868532000109553, 1.0531337999273092, 1.8983008000068367]","[0.25007109995931387, 0.48919339990243316, 0.6503296999726444, 0.7144766999408603, 0.9538200998213142, 1.0203509000129998, 1.226174599956721, 2.3623963999561965]",1,[1.3512265000026673],[1.8662729000207037],2,"[0.010942300083115697, 1.9310948001220822]","[0.18942250008694828, 2.363507700152695]",None,407.91189140011556,,,,,,,,,,,,,,,,0601,001,2023-02-06_16h57.47.462,mag_comparison_numeral,2022.2.5,60.00578454579195,
trial,007.png,009.png,007.png,009.png,3,0,right,7,9,0.7777777777777778,high,0,70,70,34,,,,,,,,,,,,,,408.445238500135,408.445238500135,408.445238500135,408.445238500135,408.445238500135,408.445238500135,408.445238500135,409.41186040011235,409.41186040011235,409.41186040011235,409.41186040011235,409.41186040011235,409.41186040011235,409.41186040011235,409.478668600088,right,1,1.2520174998790026,2,"[1.3558688000775874, 1.813837100053206]","[1.5584384000394493, 1.8620387001428753]",0,,,1,[1.8630823001731187],[2.289189000148326],2,"[0.021039200015366077, 1.8637606999836862]","[0.24410739983431995, 2.2897244000341743]",1,[1.3886482999660075],[1.8159296000376344],1,[1.9070954998023808],[2.2917124999221414],None,410.7286396001,411.29534090007655,,,,,,,,,,,,,,,0601,001,2023-02-06_16h57.47.462,mag_comparison_numeral,2022.2.5,60.00578454579195,
trial,001.png,008.png,001.png,008.png,3,0,right,1,8,0.125,low,0,71,71,57,,,,,,,,,,,,,,411.29534090007655,411.29534090007655,411.29534090007655,411.29534090007655,411.29534090007655,411.29534090007655,411.29534090007655,412.2287260000594,412.2287260000594,412.2287260000594,412.2287260000594,412.2287260000594,412.2287260000594,412.2287260000594,412.3287202999927,right,1,1.71476239990443,1,[1.3072075000964105],[1.9794069998897612],1,[2.1072911999654025],[2.683566200081259],1,[2.011440900154412],[2.6838750999886543],7,"[0.299319899873808, 0.6056532999500632, 0.7315761998761445, 0.9718979999888688, 1.099948699818924, 1.2111444999463856, 2.011721999850124]","[0.39537829998880625, 0.6999438998755068, 0.9084017998538911, 1.0361214999575168, 1.1803474999032915, 1.2767390999943018, 2.107957099797204]",1,[1.3402845999225974],[1.9495522000361234],1,[2.0445948000997305],[2.6847867001779377],None,413.99557900009677,,,,,,,,,,,,,,,,0601,001,2023-02-06_16h57.47.462,mag_comparison_numeral,2022.2.5,60.00578454579195,
,,,,,,,,,,,,,,,,,,,,,,,,,,,,,,,,,,,,,,,,,,,,,,,,,,,,,,,,,,,,,,,,,,,,,,,446.91505099995993,456.61657469999045,456.61657469999045,space,12.808224600041285,,,,,,,0601,001,2023-02-06_16h57.47.462,mag_comparison_numeral,2022.2.5,60.00578454579195,
trial,005.png,004.png,005.png,004.png,0,3,left,5,4,0.8,high,,,,,0,0,0,45,,,,,,,,,,469.53408519993536,469.53408519993536,469.53408519993536,469.53408519993536,469.53408519993536,469.53408519993536,469.53408519993536,470.4844615999609,470.4844615999609,470.4844615999609,,470.4844615999609,,470.4844615999609,470.5509973000735,left,1,1.418492899974808,0,,,0,,,0,,,0,,,0,,,0,,,None,471.96788519993424,472.51779119996354,,,,,,,,,470.4844615999609,470.4844615999609,,,,,0601,001,2023-02-06_16h57.47.462,mag_comparison_numeral,2022.2.5,60.00578454579195,
trial,001.png,007.png,001.png,007.png,0,3,right,1,7,0.14285714285714285,low,,,,,0,1,1,38,,,,,,,,,,472.51779119996354,472.51779119996354,472.51779119996354,472.51779119996354,472.51779119996354,472.51779119996354,472.51779119996354,473.5014272001572,473.5014272001572,473.5014272001572,,473.5014272001572,,473.5014272001572,473.53491550008766,right,1,1.23352269991301,0,,,0,,,0,,,0,,,0,,,0,,,None,474.81800259999,,,,,,,,,,473.5014272001572,473.5014272001572,,,,,0601,001,2023-02-06_16h57.47.462,mag_comparison_numeral,2022.2.5,60.00578454579195,
trial,007.png,006.png,007.png,006.png,0,3,left,7,6,0.8571428571428571,high,,,,,0,2,2,32,,,,,,,,,,475.3848919000011,475.3848919000011,475.3848919000011,475.3848919000011,475.3848919000011,475.3848919000011,475.3848919000011,476.3020254999865,476.3020254999865,476.3020254999865,,476.3020254999865,,476.3020254999865,476.4515488999896,left,1,1.7213977999053895,0,,,0,,,0,,,0,,,0,,,0,,,None,478.1020417001564,,,,,,,,,,476.3020254999865,476.3020254999865,,,,,0601,001,2023-02-06_16h57.47.462,mag_comparison_numeral,2022.2.5,60.00578454579195,
trial,009.png,008.png,009.png,008.png,0,3,left,9,8,0.8888888888888888,high,,,,,0,3,3,35,,,,,,,,,,478.65224270010367,478.65224270010367,478.65224270010367,478.65224270010367,478.65224270010367,478.65224270010367,478.65224270010367,479.58518779999577,479.58518779999577,479.58518779999577,,479.58518779999577,,479.58518779999577,479.68537500011735,left,1,1.6375814999919385,0,,,0,,,0,,,0,,,0,,,0,,,None,481.3185328999534,,,,,,,,,,479.58518779999577,479.58518779999577,,,,,0601,001,2023-02-06_16h57.47.462,mag_comparison_numeral,2022.2.5,60.00578454579195,
trial,002.png,009.png,002.png,009.png,0,3,right,2,9,0.2222222222222222,low,,,,,0,4,4,60,,,,,,,,,,481.86902330000885,481.86902330000885,481.86902330000885,481.86902330000885,481.86902330000885,481.86902330000885,481.86902330000885,482.83562349993736,482.83562349993736,482.83562349993736,,482.83562349993736,,482.83562349993736,482.8855405000504,right,1,2.0041154997888952,0,,,0,,,0,,,0,,,0,,,0,,,None,484.9187223999761,,,,,,,,,,482.83562349993736,482.83562349993736,,,,,0601,001,2023-02-06_16h57.47.462,mag_comparison_numeral,2022.2.5,60.00578454579195,
trial,004.png,005.png,004.png,005.png,0,3,right,4,5,0.8,high,,,,,0,5,5,27,,,,,,,,,,485.4688397999853,485.4688397999853,485.4688397999853,485.4688397999853,485.4688397999853,485.4688397999853,485.4688397999853,486.43567820009775,486.43567820009775,486.43567820009775,,486.43567820009775,,486.43567820009775,486.50241590011865,right,1,1.539210299961269,0,,,0,,,0,,,0,,,0,,,0,,,None,488.05244370014407,,,,,,,,,,486.43567820009775,486.43567820009775,,,,,0601,001,2023-02-06_16h57.47.462,mag_comparison_numeral,2022.2.5,60.00578454579195,
trial,009.png,001.png,009.png,001.png,0,3,left,9,1,0.1111111111111111,low,,,,,0,6,6,58,,,,,,,,,,488.56910019996576,488.56910019996576,488.56910019996576,488.56910019996576,488.56910019996576,488.56910019996576,488.56910019996576,489.51924549997784,489.51924549997784,489.51924549997784,,489.51924549997784,,489.51924549997784,489.619285200024,left,1,1.280154500156641,0,,,0,,,0,,,0,,,0,,,0,,,None,490.90265960013494,,,,,,,,,,489.51924549997784,489.51924549997784,,,,,0601,001,2023-02-06_16h57.47.462,mag_comparison_numeral,2022.2.5,60.00578454579195,
trial,003.png,007.png,003.png,007.png,0,3,right,3,7,0.42857142857142855,medium,,,,,0,7,7,26,,,,,,,,,,491.40273490012623,491.40273490012623,491.40273490012623,491.40273490012623,491.40273490012623,491.40273490012623,491.40273490012623,492.41947730001993,492.41947730001993,492.41947730001993,,492.41947730001993,,492.41947730001993,492.41947730001993,right,1,1.331997700035572,0,,,0,,,0,,,0,,,0,,,0,,,None,493.8363228000235,,,,,,,,,,492.41947730001993,492.41947730001993,,,,,0601,001,2023-02-06_16h57.47.462,mag_comparison_numeral,2022.2.5,60.00578454579195,
trial,007.png,003.png,007.png,003.png,0,3,left,7,3,0.42857142857142855,medium,,,,,0,8,8,8,,,,,,,,,,494.3530350001529,494.3530350001529,494.3530350001529,494.3530350001529,494.3530350001529,494.3530350001529,494.3530350001529,495.3197397000622,495.3197397000622,495.3197397000622,,495.3197397000622,,495.3197397000622,495.38641749997623,left,1,1.5591365001164377,0,,,0,,,0,,,0,,,0,,,0,,,None,496.9364959001541,,,,,,,,,,495.3197397000622,495.3197397000622,,,,,0601,001,2023-02-06_16h57.47.462,mag_comparison_numeral,2022.2.5,60.00578454579195,
trial,009.png,005.png,009.png,005.png,0,3,left,9,5,0.5555555555555556,medium,,,,,0,9,9,31,,,,,,,,,,497.5032871000003,497.5032871000003,497.5032871000003,497.5032871000003,497.5032871000003,497.5032871000003,497.5032871000003,498.4534166001249,498.4534166001249,498.4534166001249,,498.4534166001249,,498.4534166001249,498.53707440011203,left,1,1.4182112000416964,0,,,0,,,0,,,0,,,0,,,0,,,None,500.0038926000707,,,,,,,,,,498.4534166001249,498.4534166001249,,,,,0601,001,2023-02-06_16h57.47.462,mag_comparison_numeral,2022.2.5,60.00578454579195,
trial,005.png,009.png,005.png,009.png,0,3,right,5,9,0.5555555555555556,medium,,,,,0,10,10,49,,,,,,,,,,500.48698860011064,500.48698860011064,500.48698860011064,500.48698860011064,500.48698860011064,500.48698860011064,500.48698860011064,501.487166200066,501.487166200066,501.487166200066,,501.487166200066,,501.487166200066,501.5203837000299,right,1,1.5120318999979645,0,,,0,,,0,,,0,,,0,,,0,,,None,503.0707221000921,,,,,,,,,,501.487166200066,501.487166200066,,,,,0601,001,2023-02-06_16h57.47.462,mag_comparison_numeral,2022.2.5,60.00578454579195,
trial,005.png,002.png,005.png,002.png,0,3,left,5,2,0.4,medium,,,,,0,11,11,5,,,,,,,,,,503.5874956001062,503.5874956001062,503.5874956001062,503.5874956001062,503.5874956001062,503.5874956001062,503.5874956001062,504.55410009995103,504.55410009995103,504.55410009995103,,504.55410009995103,,504.55410009995103,504.62081860005856,left,1,1.2935560999903828,0,,,0,,,0,,,0,,,0,,,0,,,None,505.9211581000127,,,,,,,,,,504.55410009995103,504.55410009995103,,,,,0601,001,2023-02-06_16h57.47.462,mag_comparison_numeral,2022.2.5,60.00578454579195,
trial,006.png,005.png,006.png,005.png,0,3,left,6,5,0.8333333333333334,high,,,,,0,12,12,48,,,,,,,,,,506.437658400042,506.437658400042,506.437658400042,506.437658400042,506.437658400042,506.437658400042,506.437658400042,507.3875395001378,507.3875395001378,507.3875395001378,,507.3875395001378,,507.3875395001378,507.4710826999508,left,1,1.5235045000445098,0,,,0,,,0,,,0,,,0,,,0,,,None,509.0044664000161,,,,,,,,,,507.3875395001378,507.3875395001378,,,,,0601,001,2023-02-06_16h57.47.462,mag_comparison_numeral,2022.2.5,60.00578454579195,
trial,001.png,006.png,001.png,006.png,0,3,right,1,6,0.16666666666666666,low,,,,,0,13,13,37,,,,,,,,,,509.5215185000561,509.5215185000561,509.5215185000561,509.5215185000561,509.5215185000561,509.5215185000561,509.5215185000561,510.5213069000747,510.5213069000747,510.5213069000747,,510.5213069000747,,510.5213069000747,510.5548366000876,right,1,1.199498499976471,0,,,0,,,0,,,0,,,0,,,0,,,None,511.7714325999841,,,,,,,,,,510.5213069000747,510.5213069000747,,,,,0601,001,2023-02-06_16h57.47.462,mag_comparison_numeral,2022.2.5,60.00578454579195,
trial,004.png,009.png,004.png,009.png,0,3,right,4,9,0.4444444444444444,medium,,,,,0,14,14,29,,,,,,,,,,512.3048267001286,512.3048267001286,512.3048267001286,512.3048267001286,512.3048267001286,512.3048267001286,512.3048267001286,513.271681400016,513.271681400016,513.271681400016,,513.271681400016,,513.271681400016,513.3383880001493,right,1,1.4475360999349505,0,,,0,,,0,,,0,,,0,,,0,,,None,514.821570500033,,,,,,,,,,513.271681400016,513.271681400016,,,,,0601,001,2023-02-06_16h57.47.462,mag_comparison_numeral,2022.2.5,60.00578454579195,
trial,004.png,007.png,004.png,007.png,0,3,right,4,7,0.5714285714285714,medium,,,,,0,15,15,10,,,,,,,,,,515.3382669000421,515.3382669000421,515.3382669000421,515.3382669000421,515.3382669000421,515.3382669000421,515.3382669000421,516.3383776000701,516.3383776000701,516.3383776000701,,516.3383776000701,,516.3383776000701,516.3717654000502,right,1,1.6213858998380601,0,,,0,,,0,,,0,,,0,,,0,,,None,518.0385328000411,,,,,,,,,,516.3383776000701,516.3383776000701,,,,,0601,001,2023-02-06_16h57.47.462,mag_comparison_numeral,2022.2.5,60.00578454579195,
trial,005.png,002.png,005.png,002.png,0,3,left,5,2,0.4,medium,,,,,0,16,16,41,,,,,,,,,,518.5385622000322,518.5385622000322,518.5385622000322,518.5385622000322,518.5385622000322,518.5385622000322,518.5385622000322,519.5387123001274,519.5387123001274,519.5387123001274,,519.5387123001274,,519.5387123001274,519.5886774000246,left,1,1.66845430014655,0,,,0,,,0,,,0,,,0,,,0,,,None,521.2722581000999,,,,,,,,,,519.5387123001274,519.5387123001274,,,,,0601,001,2023-02-06_16h57.47.462,mag_comparison_numeral,2022.2.5,60.00578454579195,
trial,003.png,006.png,003.png,006.png,0,3,right,3,6,0.5,medium,,,,,0,17,17,43,,,,,,,,,,521.822206000099,521.822206000099,521.822206000099,521.822206000099,521.822206000099,521.822206000099,521.822206000099,522.7890648001339,522.7890648001339,522.7890648001339,,522.7890648001339,,522.7890648001339,522.8723500999622,right,1,1.4419742999598384,0,,,0,,,0,,,0,,,0,,,0,,,None,524.3390945000574,,,,,,,,,,522.7890648001339,522.7890648001339,,,,,0601,001,2023-02-06_16h57.47.462,mag_comparison_numeral,2022.2.5,60.00578454579195,
trial,002.png,005.png,002.png,005.png,0,3,right,2,5,0.4,medium,,,,,0,18,18,59,,,,,,,,,,524.8558149000164,524.8558149000164,524.8558149000164,524.8558149000164,524.8558149000164,524.8558149000164,524.8558149000164,525.839295099955,525.839295099955,525.839295099955,,525.839295099955,,525.839295099955,525.8725688999984,right,1,2.24043140001595,0,,,0,,,0,,,0,,,0,,,0,,,None,528.1394877999555,,,,,,,,,,525.839295099955,525.839295099955,,,,,0601,001,2023-02-06_16h57.47.462,mag_comparison_numeral,2022.2.5,60.00578454579195,
trial,001.png,008.png,001.png,008.png,0,3,right,1,8,0.125,low,,,,,0,19,19,21,,,,,,,,,,528.6396035000216,528.6396035000216,528.6396035000216,528.6396035000216,528.6396035000216,528.6396035000216,528.6396035000216,529.6399916999508,529.6399916999508,529.6399916999508,,529.6399916999508,,529.6399916999508,529.6732510000002,right,1,1.512020800029859,0,,,0,,,0,,,0,,,0,,,0,,,None,531.2733603001107,,,,,,,,,,529.6399916999508,529.6399916999508,,,,,0601,001,2023-02-06_16h57.47.462,mag_comparison_numeral,2022.2.5,60.00578454579195,
trial,004.png,007.png,004.png,007.png,0,3,right,4,7,0.5714285714285714,medium,,,,,0,20,20,46,,,,,,,,,,531.7897523001302,531.7897523001302,531.7897523001302,531.7897523001302,531.7897523001302,531.7897523001302,531.7897523001302,532.7734193999786,532.7734193999786,532.7734193999786,,532.7734193999786,,532.7734193999786,532.8068723001052,right,1,0.9630722000729293,0,,,0,,,0,,,0,,,0,,,0,,,None,533.8067060001194,,,,,,,,,,532.7734193999786,532.7734193999786,,,,,0601,001,2023-02-06_16h57.47.462,mag_comparison_numeral,2022.2.5,60.00578454579195,
trial,003.png,006.png,003.png,006.png,0,3,right,3,6,0.5,medium,,,,,0,21,21,7,,,,,,,,,,534.3736879001372,534.3736879001372,534.3736879001372,534.3736879001372,534.3736879001372,534.3736879001372,534.3736879001372,535.3235244001262,535.3235244001262,535.3235244001262,,535.3235244001262,,535.3235244001262,535.4068865000736,right,1,1.339398399926722,0,,,0,,,0,,,0,,,0,,,0,,,None,536.7236055999529,,,,,,,,,,535.3235244001262,535.3235244001262,,,,,0601,001,2023-02-06_16h57.47.462,mag_comparison_numeral,2022.2.5,60.00578454579195,
trial,001.png,009.png,001.png,009.png,0,3,right,1,9,0.1111111111111111,low,,,,,0,22,22,40,,,,,,,,,,537.2403730000369,537.2403730000369,537.2403730000369,537.2403730000369,537.2403730000369,537.2403730000369,537.2403730000369,538.2237557000481,538.2237557000481,538.2237557000481,,538.2237557000481,,538.2237557000481,538.2571394001134,right,1,1.2715818998403847,0,,,0,,,0,,,0,,,0,,,0,,,None,539.6071977999527,540.1572335001547,,,,,,,,,538.2237557000481,538.2237557000481,,,,,0601,001,2023-02-06_16h57.47.462,mag_comparison_numeral,2022.2.5,60.00578454579195,
trial,004.png,009.png,004.png,009.png,0,3,right,4,9,0.4444444444444444,medium,,,,,0,23,23,65,,,,,,,,,,540.1572335001547,540.1572335001547,540.1572335001547,540.1572335001547,540.1572335001547,540.1572335001547,540.1572335001547,541.107464700006,541.107464700006,541.107464700006,,541.107464700006,,541.107464700006,541.1740331000183,right,1,1.5315339001826942,0,,,0,,,0,,,0,,,0,,,0,,,None,542.7075003001373,,,,,,,,,,541.107464700006,541.107464700006,,,,,0601,001,2023-02-06_16h57.47.462,mag_comparison_numeral,2022.2.5,60.00578454579195,
trial,007.png,006.png,007.png,006.png,0,3,left,7,6,0.8571428571428571,high,,,,,0,24,24,68,,,,,,,,,,543.2242636999581,543.2242636999581,543.2242636999581,543.2242636999581,543.2242636999581,543.2242636999581,543.2242636999581,544.2076402001549,544.2076402001549,544.2076402001549,,544.2076402001549,,544.2076402001549,544.2411160999909,left,1,2.815972700016573,0,,,0,,,0,,,0,,,0,,,0,,,None,547.0912463001441,,,,,,,,,,544.2076402001549,544.2076402001549,,,,,0601,001,2023-02-06_16h57.47.462,mag_comparison_numeral,2022.2.5,60.00578454579195,
trial,006.png,003.png,006.png,003.png,0,3,left,6,3,0.5,medium,,,,,0,25,25,25,,,,,,,,,,547.6580135000404,547.6580135000404,547.6580135000404,547.6580135000404,547.6580135000404,547.6580135000404,547.6580135000404,548.5913837000262,548.5913837000262,548.5913837000262,,548.5913837000262,,548.5913837000262,548.675023100106,left,1,1.1606638999655843,0,,,0,,,0,,,0,,,0,,,0,,,None,549.8249196000397,,,,,,,,,,548.5913837000262,548.5913837000262,,,,,0601,001,2023-02-06_16h57.47.462,mag_comparison_numeral,2022.2.5,60.00578454579195,
trial,004.png,005.png,004.png,005.png,0,3,right,4,5,0.8,high,,,,,0,26,26,63,,,,,,,,,,550.3582178000361,550.3582178000361,550.3582178000361,550.3582178000361,550.3582178000361,550.3582178000361,550.3582178000361,551.3083240000997,551.3083240000997,551.3083240000997,,551.3083240000997,,551.3083240000997,551.374933199957,right,1,1.259299200028181,0,,,0,,,0,,,0,,,0,,,0,,,None,552.6584485999774,,,,,,,,,,551.3083240000997,551.3083240000997,,,,,0601,001,2023-02-06_16h57.47.462,mag_comparison_numeral,2022.2.5,60.00578454579195,
trial,009.png,002.png,009.png,002.png,0,3,left,9,2,0.2222222222222222,low,,,,,0,27,27,42,,,,,,,,,,553.191907600034,553.191907600034,553.191907600034,553.191907600034,553.191907600034,553.191907600034,553.191907600034,554.1254577001091,554.1254577001091,554.1254577001091,,554.1254577001091,,554.1254577001091,554.2252452999819,left,1,1.593715599970892,0,,,0,,,0,,,0,,,0,,,0,,,None,555.7920421001036,,,,,,,,,,554.1254577001091,554.1254577001091,,,,,0601,001,2023-02-06_16h57.47.462,mag_comparison_numeral,2022.2.5,60.00578454579195,
trial,007.png,004.png,007.png,004.png,0,3,left,7,4,0.5714285714285714,medium,,,,,0,28,28,64,,,,,,,,,,556.3254059001338,556.3254059001338,556.3254059001338,556.3254059001338,556.3254059001338,556.3254059001338,556.3254059001338,557.2921532001346,557.2921532001346,557.2921532001346,,557.2921532001346,,557.2921532001346,557.3755208000075,left,1,1.1467156000435352,0,,,0,,,0,,,0,,,0,,,0,,,None,558.5089638000354,,,,,,,,,,557.2921532001346,557.2921532001346,,,,,0601,001,2023-02-06_16h57.47.462,mag_comparison_numeral,2022.2.5,60.00578454579195,
trial,009.png,005.png,009.png,005.png,0,3,left,9,5,0.5555555555555556,medium,,,,,0,29,29,67,,,,,,,,,,559.0256682999898,559.0256682999898,559.0256682999898,559.0256682999898,559.0256682999898,559.0256682999898,559.0256682999898,559.9924673000351,559.9924673000351,559.9924673000351,,559.9924673000351,,559.9924673000351,560.042486899998,left,1,1.3756349000614136,0,,,0,,,0,,,0,,,0,,,0,,,None,561.4259355999529,,,,,,,,,,559.9924673000351,559.9924673000351,,,,,0601,001,2023-02-06_16h57.47.462,mag_comparison_numeral,2022.2.5,60.00578454579195,
trial,008.png,007.png,008.png,007.png,0,3,left,8,7,0.875,high,,,,,0,30,30,15,,,,,,,,,,561.9926504001487,561.9926504001487,561.9926504001487,561.9926504001487,561.9926504001487,561.9926504001487,561.9926504001487,562.9261243999936,562.9261243999936,562.9261243999936,,562.9261243999936,,562.9261243999936,563.0260687000118,left,1,1.3292775000445545,0,,,0,,,0,,,0,,,0,,,0,,,None,564.342875600094,,,,,,,,,,562.9261243999936,562.9261243999936,,,,,0601,001,2023-02-06_16h57.47.462,mag_comparison_numeral,2022.2.5,60.00578454579195,
trial,007.png,001.png,007.png,001.png,0,3,left,7,1,0.14285714285714285,low,,,,,0,31,31,20,,,,,,,,,,564.8595366000663,564.8595366000663,564.8595366000663,564.8595366000663,564.8595366000663,564.8595366000663,564.8595366000663,565.8430922999978,565.8430922999978,565.8430922999978,,565.8430922999978,,565.8430922999978,565.8763029000256,left,1,1.6766556000802666,0,,,0,,,0,,,0,,,0,,,0,,,None,567.6264927000739,,,,,,,,,,565.8430922999978,565.8430922999978,,,,,0601,001,2023-02-06_16h57.47.462,mag_comparison_numeral,2022.2.5,60.00578454579195,
trial,006.png,005.png,006.png,005.png,0,3,left,6,5,0.8333333333333334,high,,,,,0,32,32,12,,,,,,,,,,568.1266795000993,568.1266795000993,568.1266795000993,568.1266795000993,568.1266795000993,568.1266795000993,568.1266795000993,569.0933102001436,569.0933102001436,569.0933102001436,,569.0933102001436,,569.0933102001436,569.1933017000556,left,1,1.4343830000143498,0,,,0,,,0,,,0,,,0,,,0,,,None,570.6267622001469,,,,,,,,,,569.0933102001436,569.0933102001436,,,,,0601,001,2023-02-06_16h57.47.462,mag_comparison_numeral,2022.2.5,60.00578454579195,
trial,009.png,001.png,009.png,001.png,0,3,left,9,1,0.1111111111111111,low,,,,,0,33,33,22,,,,,,,,,,571.1434637000784,571.1434637000784,571.1434637000784,571.1434637000784,571.1434637000784,571.1434637000784,571.1434637000784,572.1269026000518,572.1269026000518,572.1269026000518,,572.1269026000518,,572.1269026000518,572.1602276000194,left,1,1.5284768000710756,0,,,0,,,0,,,0,,,0,,,0,,,None,573.7436842999887,,,,,,,,,,572.1269026000518,572.1269026000518,,,,,0601,001,2023-02-06_16h57.47.462,mag_comparison_numeral,2022.2.5,60.00578454579195,
trial,008.png,009.png,008.png,009.png,0,3,right,8,9,0.8888888888888888,high,,,,,0,34,34,17,,,,,,,,,,574.2437679001596,574.2437679001596,574.2437679001596,574.2437679001596,574.2437679001596,574.2437679001596,574.2437679001596,575.243858900154,575.243858900154,575.243858900154,578.260913599981,575.243858900154,578.260913599981,575.243858900154,575.277526400052,right,1,3.3392861001193523,0,,,0,,,0,,,0,,,0,,,0,,,None,578.6608293000609,,,,,,,,,,575.243858900154,575.243858900154,,,,,0601,001,2023-02-06_16h57.47.462,mag_comparison_numeral,2022.2.5,60.00578454579195,
trial,001.png,006.png,001.png,006.png,0,3,right,1,6,0.16666666666666666,low,,,,,0,35,35,1,,,,,,,,,,579.1941834001336,579.1941834001336,579.1941834001336,579.1941834001336,579.1941834001336,579.1941834001336,579.1941834001336,580.1609978000633,580.1609978000633,580.1609978000633,,580.1609978000633,,580.1609978000633,580.2443731999956,right,1,1.086038899840787,0,,,0,,,0,,,0,,,0,,,0,,,None,581.3444642000832,,,,,,,,,,580.1609978000633,580.1609978000633,,,,,0601,001,2023-02-06_16h57.47.462,mag_comparison_numeral,2022.2.5,60.00578454579195,
trial,005.png,001.png,005.png,001.png,0,3,left,5,1,0.2,low,,,,,0,36,36,54,,,,,,,,,,581.8613827000372,581.8613827000372,581.8613827000372,581.8613827000372,581.8613827000372,581.8613827000372,581.8613827000372,582.8112228000537,582.8112228000537,582.8112228000537,,582.8112228000537,,582.8112228000537,582.8779144999571,left,1,1.059817399829626,0,,,0,,,0,,,0,,,0,,,0,,,None,583.9279955001548,584.4780516999308,,,,,,,,,582.8112228000537,582.8112228000537,,,,,0601,001,2023-02-06_16h57.47.462,mag_comparison_numeral,2022.2.5,60.00578454579195,
trial,006.png,001.png,006.png,001.png,0,3,left,6,1,0.16666666666666666,low,,,,,0,37,37,55,,,,,,,,,,584.4780516999308,584.4780516999308,584.4780516999308,584.4780516999308,584.4780516999308,584.4780516999308,584.4780516999308,585.4281653000508,585.4281653000508,585.4281653000508,,585.4281653000508,,585.4281653000508,585.4950683999341,left,1,1.1548032998107374,0,,,0,,,0,,,0,,,0,,,0,,,None,586.661569399992,,,,,,,,,,585.4281653000508,585.4281653000508,,,,,0601,001,2023-02-06_16h57.47.462,mag_comparison_numeral,2022.2.5,60.00578454579195,
trial,001.png,009.png,001.png,009.png,0,3,right,1,9,0.1111111111111111,low,,,,,0,38,38,4,,,,,,,,,,587.211673400132,587.211673400132,587.211673400132,587.211673400132,587.211673400132,587.211673400132,587.211673400132,588.1617642000783,588.1617642000783,588.1617642000783,,588.1617642000783,,588.1617642000783,588.2452960000373,right,1,0.9583883001469076,0,,,0,,,0,,,0,,,0,,,0,,,None,589.1952077001333,,,,,,,,,,588.1617642000783,588.1617642000783,,,,,0601,001,2023-02-06_16h57.47.462,mag_comparison_numeral,2022.2.5,60.00578454579195,
trial,007.png,008.png,007.png,008.png,0,3,right,7,8,0.875,high,,,,,0,39,39,69,,,,,,,,,,589.76189720002,589.76189720002,589.76189720002,589.76189720002,589.76189720002,589.76189720002,589.76189720002,590.7120517001022,590.7120517001022,590.7120517001022,,590.7120517001022,,590.7120517001022,590.7786219001282,right,1,1.0235900999978185,0,,,0,,,0,,,0,,,0,,,0,,,None,591.8120602001436,,,,,,,,,,590.7120517001022,590.7120517001022,,,,,0601,001,2023-02-06_16h57.47.462,mag_comparison_numeral,2022.2.5,60.00578454579195,
trial,005.png,009.png,005.png,009.png,0,3,right,5,9,0.5555555555555556,medium,,,,,0,40,40,13,,,,,,,,,,592.3121372000314,592.3121372000314,592.3121372000314,592.3121372000314,592.3121372000314,592.3121372000314,592.3121372000314,593.3289143999573,593.3289143999573,593.3289143999573,,593.3289143999573,,593.3289143999573,593.3622538000345,right,1,1.1820702999830246,0,,,0,,,0,,,0,,,0,,,0,,,None,594.5958627001382,,,,,,,,,,593.3289143999573,593.3289143999573,,,,,0601,001,2023-02-06_16h57.47.462,mag_comparison_numeral,2022.2.5,60.00578454579195,
trial,006.png,003.png,006.png,003.png,0,3,left,6,3,0.5,medium,,,,,0,41,41,61,,,,,,,,,,595.1124190001283,595.1124190001283,595.1124190001283,595.1124190001283,595.1124190001283,595.1124190001283,595.1124190001283,596.0957820999902,596.0957820999902,596.0957820999902,,596.0957820999902,,596.0957820999902,596.1292020999826,left,1,1.231708399951458,0,,,0,,,0,,,0,,,0,,,0,,,None,597.4126029999461,,,,,,,,,,596.0957820999902,596.0957820999902,,,,,0601,001,2023-02-06_16h57.47.462,mag_comparison_numeral,2022.2.5,60.00578454579195,
trial,009.png,004.png,009.png,004.png,0,3,left,9,4,0.4444444444444444,medium,,,,,0,42,42,47,,,,,,,,,,597.9293225000147,597.9293225000147,597.9293225000147,597.9293225000147,597.9293225000147,597.9293225000147,597.9293225000147,598.912748800125,598.912748800125,598.912748800125,,598.912748800125,,598.912748800125,598.9461237001233,left,1,1.3428979001473635,0,,,0,,,0,,,0,,,0,,,0,,,None,600.2962418999523,,,,,,,,,,598.912748800125,598.912748800125,,,,,0601,001,2023-02-06_16h57.47.462,mag_comparison_numeral,2022.2.5,60.00578454579195,
trial,007.png,004.png,007.png,004.png,0,3,left,7,4,0.5714285714285714,medium,,,,,0,43,43,28,,,,,,,,,,600.812913400121,600.812913400121,600.812913400121,600.812913400121,600.812913400121,600.812913400121,600.812913400121,601.7964119000826,601.7964119000826,601.7964119000826,,601.7964119000826,,601.7964119000826,601.8297174000181,left,1,1.1550565999932587,0,,,0,,,0,,,0,,,0,,,0,,,None,603.0298137001228,,,,,,,,,,601.7964119000826,601.7964119000826,,,,,0601,001,2023-02-06_16h57.47.462,mag_comparison_numeral,2022.2.5,60.00578454579195,
trial,005.png,006.png,005.png,006.png,0,3,right,5,6,0.8333333333333334,high,,,,,0,44,44,66,,,,,,,,,,603.5298212000635,603.5298212000635,603.5298212000635,603.5298212000635,603.5298212000635,603.5298212000635,603.5298212000635,604.5299468999729,604.5299468999729,604.5299468999729,,604.5299468999729,,604.5299468999729,604.5799541000742,right,1,1.3496797000989318,0,,,0,,,0,,,0,,,0,,,0,,,None,605.930064599961,,,,,,,,,,604.5299468999729,604.5299468999729,,,,,0601,001,2023-02-06_16h57.47.462,mag_comparison_numeral,2022.2.5,60.00578454579195,
